submission_id,QUD,RT,age,comments,condition,education,endTime,experiment_id,gender,id,languages,option1,optionLeft,optionRight,question,reaction_times,response,sentence,startDate,startTime,timeSpent,time_spent,trial_name,trial_number,type
2438,The judge asks:|The witness responds:,5697,24,Some of the sentences weren't understandable enough for me (answers like comparably low/high when the question wasn't about numbers). Sometimes I did forget the last sentence and couldn't really concentrate on the present one. It would've been helpful for me if I saw all 3 sentences at once. At the end I couldn't concentrate well because I was excited about ending the experiment (took too long and the sentences were all identical). Happy that I made it :),HOWMANY,Graduated High School,1628637287982,277,female,3,bulgarian,Next,NA,NA,How many of the shots did you hear coming from the school shooting?,NA,Next,NA,Wed Aug 11 2021 00:37:24 GMT+0200 (Mitteleuropäische Sommerzeit),1628635044366,37.3936,NA,question_view,1,main
2438,,NA,24,Some of the sentences weren't understandable enough for me (answers like comparably low/high when the question wasn't about numbers). Sometimes I did forget the last sentence and couldn't really concentrate on the present one. It would've been helpful for me if I saw all 3 sentences at once. At the end I couldn't concentrate well because I was excited about ending the experiment (took too long and the sentences were all identical). Happy that I made it :),SUP,Graduated High School,1628637287982,277,female,3,bulgarian,next,NA,NA,,365|206|230|239|118|254|191|190|190|158|159|214|143,next,I | heard | at | most | ten | of | the | shots | coming | from | the | school | shooting.,Wed Aug 11 2021 00:37:24 GMT+0200 (Mitteleuropäische Sommerzeit),1628635044366,37.3936,5028,answer_view,1,main
2438,"Based on this, the judge concludes:|How justified is the judge in drawing that conclusion?",7796,24,Some of the sentences weren't understandable enough for me (answers like comparably low/high when the question wasn't about numbers). Sometimes I did forget the last sentence and couldn't really concentrate on the present one. It would've been helpful for me if I saw all 3 sentences at once. At the end I couldn't concentrate well because I was excited about ending the experiment (took too long and the sentences were all identical). Happy that I made it :),NA,Graduated High School,1628637287982,277,female,3,bulgarian,NA,not justifiable at all,strongly justifiable,The witness doesn’t know exactly how many of the shots she heard coming from the school shooting.,NA,2,NA,Wed Aug 11 2021 00:37:24 GMT+0200 (Mitteleuropäische Sommerzeit),1628635044366,37.3936,NA,conclusion_view,1,main
2438,The judge asks:|The witness responds:,2666,24,Some of the sentences weren't understandable enough for me (answers like comparably low/high when the question wasn't about numbers). Sometimes I did forget the last sentence and couldn't really concentrate on the present one. It would've been helpful for me if I saw all 3 sentences at once. At the end I couldn't concentrate well because I was excited about ending the experiment (took too long and the sentences were all identical). Happy that I made it :),HOWMANY,Graduated High School,1628637287982,277,female,5,bulgarian,Next,NA,NA,How many of the bills did you see in the purse?,NA,Next,NA,Wed Aug 11 2021 00:37:24 GMT+0200 (Mitteleuropäische Sommerzeit),1628635044366,37.3936,NA,question_view,2,main
2438,,NA,24,Some of the sentences weren't understandable enough for me (answers like comparably low/high when the question wasn't about numbers). Sometimes I did forget the last sentence and couldn't really concentrate on the present one. It would've been helpful for me if I saw all 3 sentences at once. At the end I couldn't concentrate well because I was excited about ending the experiment (took too long and the sentences were all identical). Happy that I made it :),SUP,Graduated High School,1628637287982,277,female,5,bulgarian,next,NA,NA,,198|190|191|134|230|191|174|182|182|174|152,next,I | saw | at | most | ten | of | the | bills | in | the | purse.,Wed Aug 11 2021 00:37:24 GMT+0200 (Mitteleuropäische Sommerzeit),1628635044366,37.3936,4940,answer_view,2,main
2438,"Based on this, the judge concludes:|How justified is the judge in drawing that conclusion?",4147,24,Some of the sentences weren't understandable enough for me (answers like comparably low/high when the question wasn't about numbers). Sometimes I did forget the last sentence and couldn't really concentrate on the present one. It would've been helpful for me if I saw all 3 sentences at once. At the end I couldn't concentrate well because I was excited about ending the experiment (took too long and the sentences were all identical). Happy that I made it :),NA,Graduated High School,1628637287982,277,female,5,bulgarian,NA,not justifiable at all,strongly justifiable,The witness doesn’t know exactly how many of the bills she saw in the purse.,NA,2,NA,Wed Aug 11 2021 00:37:24 GMT+0200 (Mitteleuropäische Sommerzeit),1628635044366,37.3936,NA,conclusion_view,2,main
2438,The judge asks:|The witness responds:,3252,24,Some of the sentences weren't understandable enough for me (answers like comparably low/high when the question wasn't about numbers). Sometimes I did forget the last sentence and couldn't really concentrate on the present one. It would've been helpful for me if I saw all 3 sentences at once. At the end I couldn't concentrate well because I was excited about ending the experiment (took too long and the sentences were all identical). Happy that I made it :),HOWMANY,Graduated High School,1628637287982,277,female,4,bulgarian,Next,NA,NA,How many of the robbers did you see in front of the bank?,NA,Next,NA,Wed Aug 11 2021 00:37:24 GMT+0200 (Mitteleuropäische Sommerzeit),1628635044366,37.3936,NA,question_view,3,main
2438,,NA,24,Some of the sentences weren't understandable enough for me (answers like comparably low/high when the question wasn't about numbers). Sometimes I did forget the last sentence and couldn't really concentrate on the present one. It would've been helpful for me if I saw all 3 sentences at once. At the end I couldn't concentrate well because I was excited about ending the experiment (took too long and the sentences were all identical). Happy that I made it :),SUP,Graduated High School,1628637287982,277,female,4,bulgarian,next,NA,NA,,165|191|134|222|182|166|167|166|166|334|215|190|143,next,I | saw | at | most | ten | of | the | robbers | in | front | of | the | bank.,Wed Aug 11 2021 00:37:24 GMT+0200 (Mitteleuropäische Sommerzeit),1628635044366,37.3936,5536,answer_view,3,main
2438,"Based on this, the judge concludes:|How justified is the judge in drawing that conclusion?",3248,24,Some of the sentences weren't understandable enough for me (answers like comparably low/high when the question wasn't about numbers). Sometimes I did forget the last sentence and couldn't really concentrate on the present one. It would've been helpful for me if I saw all 3 sentences at once. At the end I couldn't concentrate well because I was excited about ending the experiment (took too long and the sentences were all identical). Happy that I made it :),NA,Graduated High School,1628637287982,277,female,4,bulgarian,NA,not justifiable at all,strongly justifiable,The witness doesn’t know exactly how many of the robbers she saw in front of the bank.,NA,2,NA,Wed Aug 11 2021 00:37:24 GMT+0200 (Mitteleuropäische Sommerzeit),1628635044366,37.3936,NA,conclusion_view,3,main
2438,The judge asks:|The witness responds:,2729,24,Some of the sentences weren't understandable enough for me (answers like comparably low/high when the question wasn't about numbers). Sometimes I did forget the last sentence and couldn't really concentrate on the present one. It would've been helpful for me if I saw all 3 sentences at once. At the end I couldn't concentrate well because I was excited about ending the experiment (took too long and the sentences were all identical). Happy that I made it :),HOWMANY,Graduated High School,1628637287982,277,female,2,bulgarian,Next,NA,NA,How many of the pills did you find in the bag?,NA,Next,NA,Wed Aug 11 2021 00:37:24 GMT+0200 (Mitteleuropäische Sommerzeit),1628635044366,37.3936,NA,question_view,4,main
2438,,NA,24,Some of the sentences weren't understandable enough for me (answers like comparably low/high when the question wasn't about numbers). Sometimes I did forget the last sentence and couldn't really concentrate on the present one. It would've been helpful for me if I saw all 3 sentences at once. At the end I couldn't concentrate well because I was excited about ending the experiment (took too long and the sentences were all identical). Happy that I made it :),SUP,Graduated High School,1628637287982,277,female,2,bulgarian,next,NA,NA,,182|398|143|230|350|182|183|174|166|183|151,next,I | found | at | most | ten | of | the | pills | in  | the | bag.,Wed Aug 11 2021 00:37:24 GMT+0200 (Mitteleuropäische Sommerzeit),1628635044366,37.3936,5303,answer_view,4,main
2438,"Based on this, the judge concludes:|How justified is the judge in drawing that conclusion?",3568,24,Some of the sentences weren't understandable enough for me (answers like comparably low/high when the question wasn't about numbers). Sometimes I did forget the last sentence and couldn't really concentrate on the present one. It would've been helpful for me if I saw all 3 sentences at once. At the end I couldn't concentrate well because I was excited about ending the experiment (took too long and the sentences were all identical). Happy that I made it :),NA,Graduated High School,1628637287982,277,female,2,bulgarian,NA,not justifiable at all,strongly justifiable,The witness doesn’t know exactly how many of the pills she found in the bag.,NA,2,NA,Wed Aug 11 2021 00:37:24 GMT+0200 (Mitteleuropäische Sommerzeit),1628635044366,37.3936,NA,conclusion_view,4,main
2438,The judge asks:|The witness responds:,2591,24,Some of the sentences weren't understandable enough for me (answers like comparably low/high when the question wasn't about numbers). Sometimes I did forget the last sentence and couldn't really concentrate on the present one. It would've been helpful for me if I saw all 3 sentences at once. At the end I couldn't concentrate well because I was excited about ending the experiment (took too long and the sentences were all identical). Happy that I made it :),HOWMANY,Graduated High School,1628637287982,277,female,1,bulgarian,Next,NA,NA,How many of the coins did you find in the wallet?,NA,Next,NA,Wed Aug 11 2021 00:37:24 GMT+0200 (Mitteleuropäische Sommerzeit),1628635044366,37.3936,NA,question_view,5,main
2438,,NA,24,Some of the sentences weren't understandable enough for me (answers like comparably low/high when the question wasn't about numbers). Sometimes I did forget the last sentence and couldn't really concentrate on the present one. It would've been helpful for me if I saw all 3 sentences at once. At the end I couldn't concentrate well because I was excited about ending the experiment (took too long and the sentences were all identical). Happy that I made it :),SUP,Graduated High School,1628637287982,277,female,1,bulgarian,next,NA,NA,,214|142|247|142|158|191|174|174|182|158|168,next,I | found | at | most | ten | of | the | coins | in | the | wallet.,Wed Aug 11 2021 00:37:24 GMT+0200 (Mitteleuropäische Sommerzeit),1628635044366,37.3936,6157,answer_view,5,main
2438,"Based on this, the judge concludes:|How justified is the judge in drawing that conclusion?",3034,24,Some of the sentences weren't understandable enough for me (answers like comparably low/high when the question wasn't about numbers). Sometimes I did forget the last sentence and couldn't really concentrate on the present one. It would've been helpful for me if I saw all 3 sentences at once. At the end I couldn't concentrate well because I was excited about ending the experiment (took too long and the sentences were all identical). Happy that I made it :),NA,Graduated High School,1628637287982,277,female,1,bulgarian,NA,not justifiable at all,strongly justifiable,The witness doesn’t know exactly how many of the coins she found in the wallet.,NA,2,NA,Wed Aug 11 2021 00:37:24 GMT+0200 (Mitteleuropäische Sommerzeit),1628635044366,37.3936,NA,conclusion_view,5,main
2438,The judge asks:|The witness responds:,4537,24,Some of the sentences weren't understandable enough for me (answers like comparably low/high when the question wasn't about numbers). Sometimes I did forget the last sentence and couldn't really concentrate on the present one. It would've been helpful for me if I saw all 3 sentences at once. At the end I couldn't concentrate well because I was excited about ending the experiment (took too long and the sentences were all identical). Happy that I made it :),HOWMANY,Graduated High School,1628637287982,277,female,6,bulgarian,Next,NA,NA,How many of the shot glasses did you find on the kitchen counter?,NA,Next,NA,Wed Aug 11 2021 00:37:24 GMT+0200 (Mitteleuropäische Sommerzeit),1628635044366,37.3936,NA,question_view,6,main
2438,,NA,24,Some of the sentences weren't understandable enough for me (answers like comparably low/high when the question wasn't about numbers). Sometimes I did forget the last sentence and couldn't really concentrate on the present one. It would've been helpful for me if I saw all 3 sentences at once. At the end I couldn't concentrate well because I was excited about ending the experiment (took too long and the sentences were all identical). Happy that I made it :),SUP,Graduated High School,1628637287982,277,female,6,bulgarian,next,NA,NA,,214|166|198|175|366|174|167|126|158|278|175|174|167,next,I | saw | at | most | ten | of | the | shot | glasses | on | the | kitchen | counter.,Wed Aug 11 2021 00:37:24 GMT+0200 (Mitteleuropäische Sommerzeit),1628635044366,37.3936,6733,answer_view,6,main
2438,"Based on this, the judge concludes:|How justified is the judge in drawing that conclusion?",6669,24,Some of the sentences weren't understandable enough for me (answers like comparably low/high when the question wasn't about numbers). Sometimes I did forget the last sentence and couldn't really concentrate on the present one. It would've been helpful for me if I saw all 3 sentences at once. At the end I couldn't concentrate well because I was excited about ending the experiment (took too long and the sentences were all identical). Happy that I made it :),NA,Graduated High School,1628637287982,277,female,6,bulgarian,NA,not justifiable at all,strongly justifiable,The witness doesn’t know exactly how many of the shot glasses she saw on the kitchen counter.,NA,2,NA,Wed Aug 11 2021 00:37:24 GMT+0200 (Mitteleuropäische Sommerzeit),1628635044366,37.3936,NA,conclusion_view,6,main
2438,The judge asks:|The witness responds:,3596,24,Some of the sentences weren't understandable enough for me (answers like comparably low/high when the question wasn't about numbers). Sometimes I did forget the last sentence and couldn't really concentrate on the present one. It would've been helpful for me if I saw all 3 sentences at once. At the end I couldn't concentrate well because I was excited about ending the experiment (took too long and the sentences were all identical). Happy that I made it :),WHAT,Graduated High School,1628637287982,277,female,5,bulgarian,Next,NA,NA,What did you approximately hear at this event?,NA,Next,NA,Wed Aug 11 2021 00:37:24 GMT+0200 (Mitteleuropäische Sommerzeit),1628635044366,37.3936,NA,fill_question,1,filler-plau
2438,,NA,24,Some of the sentences weren't understandable enough for me (answers like comparably low/high when the question wasn't about numbers). Sometimes I did forget the last sentence and couldn't really concentrate on the present one. It would've been helpful for me if I saw all 3 sentences at once. At the end I couldn't concentrate well because I was excited about ending the experiment (took too long and the sentences were all identical). Happy that I made it :),SUP,Graduated High School,1628637287982,277,female,5,bulgarian,Next,NA,NA,,149|247|166|214|198|199|182|110|247|175,Next,I | heard | at | most | ten | women | shouting | at | this | event.,Wed Aug 11 2021 00:37:24 GMT+0200 (Mitteleuropäische Sommerzeit),1628635044366,37.3936,5560,fill_answer,1,filler-plau
2438,"Based on this, the judge concludes:|How justified is the judge in drawing that conclusion?",19631,24,Some of the sentences weren't understandable enough for me (answers like comparably low/high when the question wasn't about numbers). Sometimes I did forget the last sentence and couldn't really concentrate on the present one. It would've been helpful for me if I saw all 3 sentences at once. At the end I couldn't concentrate well because I was excited about ending the experiment (took too long and the sentences were all identical). Happy that I made it :),NA,Graduated High School,1628637287982,277,female,5,bulgarian,NA,not justifiable at all,strongly justifiable,The witness thinks the number of women she heard shouting at this event is comparably low.,NA,1,NA,Wed Aug 11 2021 00:37:24 GMT+0200 (Mitteleuropäische Sommerzeit),1628635044366,37.3936,NA,fill_conclusion,1,filler-plau
2438,The judge asks:|The witness responds:,3785,24,Some of the sentences weren't understandable enough for me (answers like comparably low/high when the question wasn't about numbers). Sometimes I did forget the last sentence and couldn't really concentrate on the present one. It would've been helpful for me if I saw all 3 sentences at once. At the end I couldn't concentrate well because I was excited about ending the experiment (took too long and the sentences were all identical). Happy that I made it :),POLAR,Graduated High School,1628637287982,277,female,5,bulgarian,Next,NA,NA,Did you hear less than ten women shouting at this event?,NA,Next,NA,Wed Aug 11 2021 00:37:24 GMT+0200 (Mitteleuropäische Sommerzeit),1628635044366,37.3936,NA,fill_question,2,filler-implau
2438,,NA,24,Some of the sentences weren't understandable enough for me (answers like comparably low/high when the question wasn't about numbers). Sometimes I did forget the last sentence and couldn't really concentrate on the present one. It would've been helpful for me if I saw all 3 sentences at once. At the end I couldn't concentrate well because I was excited about ending the experiment (took too long and the sentences were all identical). Happy that I made it :),COMP,Graduated High School,1628637287982,277,female,5,bulgarian,Next,NA,NA,,207|142|239|414|503|3641|182|304|261|208,Next,I | only | heard | less| than | ten | women | shouting | at | this | event.,Wed Aug 11 2021 00:37:24 GMT+0200 (Mitteleuropäische Sommerzeit),1628635044366,37.3936,10837,fill_answer,2,filler-implau
2438,"Based on this, the judge concludes:|How justified is the judge in drawing that conclusion?",5329,24,Some of the sentences weren't understandable enough for me (answers like comparably low/high when the question wasn't about numbers). Sometimes I did forget the last sentence and couldn't really concentrate on the present one. It would've been helpful for me if I saw all 3 sentences at once. At the end I couldn't concentrate well because I was excited about ending the experiment (took too long and the sentences were all identical). Happy that I made it :),NA,Graduated High School,1628637287982,277,female,5,bulgarian,NA,not justifiable at all,strongly justifiable,The witness thinks the number of women she heard shouting at this event is comparably high.,NA,5,NA,Wed Aug 11 2021 00:37:24 GMT+0200 (Mitteleuropäische Sommerzeit),1628635044366,37.3936,NA,fill_conclusion,2,filler-implau
2438,The judge asks:|The witness responds:,9345,24,Some of the sentences weren't understandable enough for me (answers like comparably low/high when the question wasn't about numbers). Sometimes I did forget the last sentence and couldn't really concentrate on the present one. It would've been helpful for me if I saw all 3 sentences at once. At the end I couldn't concentrate well because I was excited about ending the experiment (took too long and the sentences were all identical). Happy that I made it :),DID,Graduated High School,1628637287982,277,female,8,bulgarian,Next,NA,NA,Did you only see ten pictures of the assault in the locker?,NA,Next,NA,Wed Aug 11 2021 00:37:24 GMT+0200 (Mitteleuropäische Sommerzeit),1628635044366,37.3936,NA,fill_question,3,filler-ov
2438,,NA,24,Some of the sentences weren't understandable enough for me (answers like comparably low/high when the question wasn't about numbers). Sometimes I did forget the last sentence and couldn't really concentrate on the present one. It would've been helpful for me if I saw all 3 sentences at once. At the end I couldn't concentrate well because I was excited about ending the experiment (took too long and the sentences were all identical). Happy that I made it :),COMP,Graduated High School,1628637287982,277,female,8,bulgarian,Next,NA,NA,,246|278|279|198|230|223|158|214|183|198|200,Next,I | saw | less | than | ten | pictures | of the | assault | in | the | locker.,Wed Aug 11 2021 00:37:24 GMT+0200 (Mitteleuropäische Sommerzeit),1628635044366,37.3936,5108,fill_answer,3,filler-ov
2438,"Based on this, the judge concludes:|How justified is the judge in drawing that conclusion?",6639,24,Some of the sentences weren't understandable enough for me (answers like comparably low/high when the question wasn't about numbers). Sometimes I did forget the last sentence and couldn't really concentrate on the present one. It would've been helpful for me if I saw all 3 sentences at once. At the end I couldn't concentrate well because I was excited about ending the experiment (took too long and the sentences were all identical). Happy that I made it :),NA,Graduated High School,1628637287982,277,female,8,bulgarian,NA,not justifiable at all,strongly justifiable,The witness considers it possible that she saw nine pictures of the assault in the locker.,NA,5,NA,Wed Aug 11 2021 00:37:24 GMT+0200 (Mitteleuropäische Sommerzeit),1628635044366,37.3936,NA,fill_conclusion,3,filler-ov
2438,The judge asks:|The witness responds:,4203,24,Some of the sentences weren't understandable enough for me (answers like comparably low/high when the question wasn't about numbers). Sometimes I did forget the last sentence and couldn't really concentrate on the present one. It would've been helpful for me if I saw all 3 sentences at once. At the end I couldn't concentrate well because I was excited about ending the experiment (took too long and the sentences were all identical). Happy that I made it :),WHAT,Graduated High School,1628637287982,277,female,2,bulgarian,Next,NA,NA,What did you probably see flying in the air?,NA,Next,NA,Wed Aug 11 2021 00:37:24 GMT+0200 (Mitteleuropäische Sommerzeit),1628635044366,37.3936,NA,fill_question,4,filler-plau
2438,,NA,24,Some of the sentences weren't understandable enough for me (answers like comparably low/high when the question wasn't about numbers). Sometimes I did forget the last sentence and couldn't really concentrate on the present one. It would've been helpful for me if I saw all 3 sentences at once. At the end I couldn't concentrate well because I was excited about ending the experiment (took too long and the sentences were all identical). Happy that I made it :),COMP,Graduated High School,1628637287982,277,female,2,bulgarian,Next,NA,NA,,206|255|238|190|214|135|198|198|230|175|158|815|218,Next,I | only | saw | less | than | ten | of | the | balloons | flying | in | the | air.,Wed Aug 11 2021 00:37:24 GMT+0200 (Mitteleuropäische Sommerzeit),1628635044366,37.3936,8871,fill_answer,4,filler-plau
2438,"Based on this, the judge concludes:|How justified is the judge in drawing that conclusion?",7018,24,Some of the sentences weren't understandable enough for me (answers like comparably low/high when the question wasn't about numbers). Sometimes I did forget the last sentence and couldn't really concentrate on the present one. It would've been helpful for me if I saw all 3 sentences at once. At the end I couldn't concentrate well because I was excited about ending the experiment (took too long and the sentences were all identical). Happy that I made it :),NA,Graduated High School,1628637287982,277,female,2,bulgarian,NA,not justifiable at all,strongly justifiable,The witness thinks that the number of the balloons flying in the air is considerably low.,NA,5,NA,Wed Aug 11 2021 00:37:24 GMT+0200 (Mitteleuropäische Sommerzeit),1628635044366,37.3936,NA,fill_conclusion,4,filler-plau
2438,The judge asks:|The witness responds:,4580,24,Some of the sentences weren't understandable enough for me (answers like comparably low/high when the question wasn't about numbers). Sometimes I did forget the last sentence and couldn't really concentrate on the present one. It would've been helpful for me if I saw all 3 sentences at once. At the end I couldn't concentrate well because I was excited about ending the experiment (took too long and the sentences were all identical). Happy that I made it :),HOWMANY,Graduated High School,1628637287982,277,female,2,bulgarian,Next,NA,NA,How many of the balloons did you approximately see flying in the air?,NA,Next,NA,Wed Aug 11 2021 00:37:24 GMT+0200 (Mitteleuropäische Sommerzeit),1628635044366,37.3936,NA,fill_question,5,filler-oi
2438,,NA,24,Some of the sentences weren't understandable enough for me (answers like comparably low/high when the question wasn't about numbers). Sometimes I did forget the last sentence and couldn't really concentrate on the present one. It would've been helpful for me if I saw all 3 sentences at once. At the end I couldn't concentrate well because I was excited about ending the experiment (took too long and the sentences were all identical). Happy that I made it :),SUP,Graduated High School,1628637287982,277,female,2,bulgarian,Next,NA,NA,,167|173|191|190|182|183|175|157|174|159|182|167|192,Next,I | only | saw | at | most | ten | of | the | balloons | flying | in | the | air.,Wed Aug 11 2021 00:37:24 GMT+0200 (Mitteleuropäische Sommerzeit),1628635044366,37.3936,5571,fill_answer,5,filler-oi
2438,"Based on this, the judge concludes:|How justified is the judge in drawing that conclusion?",4590,24,Some of the sentences weren't understandable enough for me (answers like comparably low/high when the question wasn't about numbers). Sometimes I did forget the last sentence and couldn't really concentrate on the present one. It would've been helpful for me if I saw all 3 sentences at once. At the end I couldn't concentrate well because I was excited about ending the experiment (took too long and the sentences were all identical). Happy that I made it :),NA,Graduated High School,1628637287982,277,female,2,bulgarian,NA,not justifiable at all,strongly justifiable,The witness considers it possible that she saw eleven of the balloons flying in the air.,NA,1,NA,Wed Aug 11 2021 00:37:24 GMT+0200 (Mitteleuropäische Sommerzeit),1628635044366,37.3936,NA,fill_conclusion,5,filler-oi
2438,The judge asks:|The witness responds:,2880,24,Some of the sentences weren't understandable enough for me (answers like comparably low/high when the question wasn't about numbers). Sometimes I did forget the last sentence and couldn't really concentrate on the present one. It would've been helpful for me if I saw all 3 sentences at once. At the end I couldn't concentrate well because I was excited about ending the experiment (took too long and the sentences were all identical). Happy that I made it :),WHAT,Graduated High School,1628637287982,277,female,8,bulgarian,Next,NA,NA,What did you find in the locker?,NA,Next,NA,Wed Aug 11 2021 00:37:24 GMT+0200 (Mitteleuropäische Sommerzeit),1628635044366,37.3936,NA,fill_question,6,filler-oi
2438,,NA,24,Some of the sentences weren't understandable enough for me (answers like comparably low/high when the question wasn't about numbers). Sometimes I did forget the last sentence and couldn't really concentrate on the present one. It would've been helpful for me if I saw all 3 sentences at once. At the end I couldn't concentrate well because I was excited about ending the experiment (took too long and the sentences were all identical). Happy that I made it :),COMP,Graduated High School,1628637287982,277,female,8,bulgarian,Next,NA,NA,,198|190|183|190|166|182|191|182|166|166|183|143,Next,I | only | found | less | than | ten | pictures | of the | assault | in | the | locker.,Wed Aug 11 2021 00:37:24 GMT+0200 (Mitteleuropäische Sommerzeit),1628635044366,37.3936,4733,fill_answer,6,filler-oi
2438,"Based on this, the judge concludes:|How justified is the judge in drawing that conclusion?",6629,24,Some of the sentences weren't understandable enough for me (answers like comparably low/high when the question wasn't about numbers). Sometimes I did forget the last sentence and couldn't really concentrate on the present one. It would've been helpful for me if I saw all 3 sentences at once. At the end I couldn't concentrate well because I was excited about ending the experiment (took too long and the sentences were all identical). Happy that I made it :),NA,Graduated High School,1628637287982,277,female,8,bulgarian,NA,not justifiable at all,strongly justifiable,The witness considers it possible that she saw eleven pictures of the assault in the locker.,NA,1,NA,Wed Aug 11 2021 00:37:24 GMT+0200 (Mitteleuropäische Sommerzeit),1628635044366,37.3936,NA,fill_conclusion,6,filler-oi
2438,The judge asks:|The witness responds:,3537,24,Some of the sentences weren't understandable enough for me (answers like comparably low/high when the question wasn't about numbers). Sometimes I did forget the last sentence and couldn't really concentrate on the present one. It would've been helpful for me if I saw all 3 sentences at once. At the end I couldn't concentrate well because I was excited about ending the experiment (took too long and the sentences were all identical). Happy that I made it :),DID,Graduated High School,1628637287982,277,female,8,bulgarian,Next,NA,NA,Did you see only ten pictures of the assault in the locker?,NA,Next,NA,Wed Aug 11 2021 00:37:24 GMT+0200 (Mitteleuropäische Sommerzeit),1628635044366,37.3936,NA,fill_question,7,filler-plau
2438,,NA,24,Some of the sentences weren't understandable enough for me (answers like comparably low/high when the question wasn't about numbers). Sometimes I did forget the last sentence and couldn't really concentrate on the present one. It would've been helpful for me if I saw all 3 sentences at once. At the end I couldn't concentrate well because I was excited about ending the experiment (took too long and the sentences were all identical). Happy that I made it :),SUP,Graduated High School,1628637287982,277,female,8,bulgarian,Next,NA,NA,,399|190|215|174|206|183|174|182|182|167|174|159,Next,I | saw | at | most | ten | pictures | of | the | assault | in | the | locker.,Wed Aug 11 2021 00:37:24 GMT+0200 (Mitteleuropäische Sommerzeit),1628635044366,37.3936,5941,fill_answer,7,filler-plau
2438,"Based on this, the judge concludes:|How justified is the judge in drawing that conclusion?",9066,24,Some of the sentences weren't understandable enough for me (answers like comparably low/high when the question wasn't about numbers). Sometimes I did forget the last sentence and couldn't really concentrate on the present one. It would've been helpful for me if I saw all 3 sentences at once. At the end I couldn't concentrate well because I was excited about ending the experiment (took too long and the sentences were all identical). Happy that I made it :),NA,Graduated High School,1628637287982,277,female,8,bulgarian,NA,not justifiable at all,strongly justifiable,The witness thinks the number of pictures she saw in the locker is comparably low.,NA,5,NA,Wed Aug 11 2021 00:37:24 GMT+0200 (Mitteleuropäische Sommerzeit),1628635044366,37.3936,NA,fill_conclusion,7,filler-plau
2438,The judge asks:|The witness responds:,6044,24,Some of the sentences weren't understandable enough for me (answers like comparably low/high when the question wasn't about numbers). Sometimes I did forget the last sentence and couldn't really concentrate on the present one. It would've been helpful for me if I saw all 3 sentences at once. At the end I couldn't concentrate well because I was excited about ending the experiment (took too long and the sentences were all identical). Happy that I made it :),HOWMANY,Graduated High School,1628637287982,277,female,4,bulgarian,Next,NA,NA,How many children did you approximately find while trying to escape the fire?,NA,Next,NA,Wed Aug 11 2021 00:37:24 GMT+0200 (Mitteleuropäische Sommerzeit),1628635044366,37.3936,NA,fill_question,8,filler-implau
2438,,NA,24,Some of the sentences weren't understandable enough for me (answers like comparably low/high when the question wasn't about numbers). Sometimes I did forget the last sentence and couldn't really concentrate on the present one. It would've been helpful for me if I saw all 3 sentences at once. At the end I couldn't concentrate well because I was excited about ending the experiment (took too long and the sentences were all identical). Happy that I made it :),COMP,Graduated High School,1628637287982,277,female,4,bulgarian,Next,NA,NA,,158|199|350|214|175|206|134|190|175|198|190|176,Next,I | found | less | than | ten | children | while | trying | to | escape | the | fire.,Wed Aug 11 2021 00:37:24 GMT+0200 (Mitteleuropäische Sommerzeit),1628635044366,37.3936,5844,fill_answer,8,filler-implau
2438,"Based on this, the judge concludes:|How justified is the judge in drawing that conclusion?",6882,24,Some of the sentences weren't understandable enough for me (answers like comparably low/high when the question wasn't about numbers). Sometimes I did forget the last sentence and couldn't really concentrate on the present one. It would've been helpful for me if I saw all 3 sentences at once. At the end I couldn't concentrate well because I was excited about ending the experiment (took too long and the sentences were all identical). Happy that I made it :),NA,Graduated High School,1628637287982,277,female,4,bulgarian,NA,not justifiable at all,strongly justifiable,The witness thinks the number of children she found trying to escape the fire is comparably high.,NA,5,NA,Wed Aug 11 2021 00:37:24 GMT+0200 (Mitteleuropäische Sommerzeit),1628635044366,37.3936,NA,fill_conclusion,8,filler-implau
2438,The judge asks:|The witness responds:,4383,24,Some of the sentences weren't understandable enough for me (answers like comparably low/high when the question wasn't about numbers). Sometimes I did forget the last sentence and couldn't really concentrate on the present one. It would've been helpful for me if I saw all 3 sentences at once. At the end I couldn't concentrate well because I was excited about ending the experiment (took too long and the sentences were all identical). Happy that I made it :),POLAR,Graduated High School,1628637287982,277,female,4,bulgarian,Next,NA,NA,Did you certainly find less than ten children while trying to escape the fire?,NA,Next,NA,Wed Aug 11 2021 00:37:24 GMT+0200 (Mitteleuropäische Sommerzeit),1628635044366,37.3936,NA,fill_question,9,filler-implau
2438,,NA,24,Some of the sentences weren't understandable enough for me (answers like comparably low/high when the question wasn't about numbers). Sometimes I did forget the last sentence and couldn't really concentrate on the present one. It would've been helpful for me if I saw all 3 sentences at once. At the end I couldn't concentrate well because I was excited about ending the experiment (took too long and the sentences were all identical). Happy that I made it :),COMP,Graduated High School,1628637287982,277,female,4,bulgarian,Next,NA,NA,,197|183|174|175|174|158|167|198|158|182|190|143|2492,Next,I  | only | found | less | than | ten | children | while | trying | to | escape | the | fire.,Wed Aug 11 2021 00:37:24 GMT+0200 (Mitteleuropäische Sommerzeit),1628635044366,37.3936,7215,fill_answer,9,filler-implau
2438,"Based on this, the judge concludes:|How justified is the judge in drawing that conclusion?",3458,24,Some of the sentences weren't understandable enough for me (answers like comparably low/high when the question wasn't about numbers). Sometimes I did forget the last sentence and couldn't really concentrate on the present one. It would've been helpful for me if I saw all 3 sentences at once. At the end I couldn't concentrate well because I was excited about ending the experiment (took too long and the sentences were all identical). Happy that I made it :),NA,Graduated High School,1628637287982,277,female,4,bulgarian,NA,not justifiable at all,strongly justifiable,The witness thinks the number of children she found trying to escape the fire is comparably high.,NA,5,NA,Wed Aug 11 2021 00:37:24 GMT+0200 (Mitteleuropäische Sommerzeit),1628635044366,37.3936,NA,fill_conclusion,9,filler-implau
2438,The judge asks:|The witness responds:,4299,24,Some of the sentences weren't understandable enough for me (answers like comparably low/high when the question wasn't about numbers). Sometimes I did forget the last sentence and couldn't really concentrate on the present one. It would've been helpful for me if I saw all 3 sentences at once. At the end I couldn't concentrate well because I was excited about ending the experiment (took too long and the sentences were all identical). Happy that I made it :),WHAT,Graduated High School,1628637287982,277,female,4,bulgarian,Next,NA,NA,What did you certainly find while trying to escape the fire?,NA,Next,NA,Wed Aug 11 2021 00:37:24 GMT+0200 (Mitteleuropäische Sommerzeit),1628635044366,37.3936,NA,fill_question,10,filler-plau
2438,,NA,24,Some of the sentences weren't understandable enough for me (answers like comparably low/high when the question wasn't about numbers). Sometimes I did forget the last sentence and couldn't really concentrate on the present one. It would've been helpful for me if I saw all 3 sentences at once. At the end I couldn't concentrate well because I was excited about ending the experiment (took too long and the sentences were all identical). Happy that I made it :),SUP,Graduated High School,1628637287982,277,female,4,bulgarian,Next,NA,NA,,189|167|174|166|174|158|175|182|150|175|174|160,Next,I | found | at | most | ten | children | while | trying | to | escape | the | fire.,Wed Aug 11 2021 00:37:24 GMT+0200 (Mitteleuropäische Sommerzeit),1628635044366,37.3936,5244,fill_answer,10,filler-plau
2438,"Based on this, the judge concludes:|How justified is the judge in drawing that conclusion?",4840,24,Some of the sentences weren't understandable enough for me (answers like comparably low/high when the question wasn't about numbers). Sometimes I did forget the last sentence and couldn't really concentrate on the present one. It would've been helpful for me if I saw all 3 sentences at once. At the end I couldn't concentrate well because I was excited about ending the experiment (took too long and the sentences were all identical). Happy that I made it :),NA,Graduated High School,1628637287982,277,female,4,bulgarian,NA,not justifiable at all,strongly justifiable,The witness thinks the number of children she found trying to escape the fire is comparably low.,NA,5,NA,Wed Aug 11 2021 00:37:24 GMT+0200 (Mitteleuropäische Sommerzeit),1628635044366,37.3936,NA,fill_conclusion,10,filler-plau
2438,The judge asks:|The witness responds:,5712,24,Some of the sentences weren't understandable enough for me (answers like comparably low/high when the question wasn't about numbers). Sometimes I did forget the last sentence and couldn't really concentrate on the present one. It would've been helpful for me if I saw all 3 sentences at once. At the end I couldn't concentrate well because I was excited about ending the experiment (took too long and the sentences were all identical). Happy that I made it :),HOWMANY,Graduated High School,1628637287982,277,female,4,bulgarian,Next,NA,NA,How many children did you probably find while trying to escape the fire?,NA,Next,NA,Wed Aug 11 2021 00:37:24 GMT+0200 (Mitteleuropäische Sommerzeit),1628635044366,37.3936,NA,fill_question,11,filler-implau
2438,,NA,24,Some of the sentences weren't understandable enough for me (answers like comparably low/high when the question wasn't about numbers). Sometimes I did forget the last sentence and couldn't really concentrate on the present one. It would've been helpful for me if I saw all 3 sentences at once. At the end I couldn't concentrate well because I was excited about ending the experiment (took too long and the sentences were all identical). Happy that I made it :),SUP,Graduated High School,1628637287982,277,female,4,bulgarian,Next,NA,NA,,174|190|166|142|231|166|174|191|190|174|191|183,Next,I | found | at | most | ten | children | while | trying | to | escape | the | fire.,Wed Aug 11 2021 00:37:24 GMT+0200 (Mitteleuropäische Sommerzeit),1628635044366,37.3936,5424,fill_answer,11,filler-implau
2438,"Based on this, the judge concludes:|How justified is the judge in drawing that conclusion?",9883,24,Some of the sentences weren't understandable enough for me (answers like comparably low/high when the question wasn't about numbers). Sometimes I did forget the last sentence and couldn't really concentrate on the present one. It would've been helpful for me if I saw all 3 sentences at once. At the end I couldn't concentrate well because I was excited about ending the experiment (took too long and the sentences were all identical). Happy that I made it :),NA,Graduated High School,1628637287982,277,female,4,bulgarian,NA,not justifiable at all,strongly justifiable,The witness thinks the number of children she found trying to escape the fire is comparably high.,NA,2,NA,Wed Aug 11 2021 00:37:24 GMT+0200 (Mitteleuropäische Sommerzeit),1628635044366,37.3936,NA,fill_conclusion,11,filler-implau
2438,The judge asks:|The witness responds:,3130,24,Some of the sentences weren't understandable enough for me (answers like comparably low/high when the question wasn't about numbers). Sometimes I did forget the last sentence and couldn't really concentrate on the present one. It would've been helpful for me if I saw all 3 sentences at once. At the end I couldn't concentrate well because I was excited about ending the experiment (took too long and the sentences were all identical). Happy that I made it :),DID,Graduated High School,1628637287982,277,female,6,bulgarian,Next,NA,NA,Did you certainly see animals roaming in the forest?,NA,Next,NA,Wed Aug 11 2021 00:37:24 GMT+0200 (Mitteleuropäische Sommerzeit),1628635044366,37.3936,NA,fill_question,12,filler-plau
2438,,NA,24,Some of the sentences weren't understandable enough for me (answers like comparably low/high when the question wasn't about numbers). Sometimes I did forget the last sentence and couldn't really concentrate on the present one. It would've been helpful for me if I saw all 3 sentences at once. At the end I couldn't concentrate well because I was excited about ending the experiment (took too long and the sentences were all identical). Happy that I made it :),SUP,Graduated High School,1628637287982,277,female,6,bulgarian,Next,NA,NA,,166|182|166|159|174|190|174|175|158|166|1210,Next,I | probably | saw | at | most | ten | animals | roaming | in | the | forest.,Wed Aug 11 2021 00:37:24 GMT+0200 (Mitteleuropäische Sommerzeit),1628635044366,37.3936,6085,fill_answer,12,filler-plau
2438,"Based on this, the judge concludes:|How justified is the judge in drawing that conclusion?",5003,24,Some of the sentences weren't understandable enough for me (answers like comparably low/high when the question wasn't about numbers). Sometimes I did forget the last sentence and couldn't really concentrate on the present one. It would've been helpful for me if I saw all 3 sentences at once. At the end I couldn't concentrate well because I was excited about ending the experiment (took too long and the sentences were all identical). Happy that I made it :),NA,Graduated High School,1628637287982,277,female,6,bulgarian,NA,not justifiable at all,strongly justifiable,The witness thinks the number of animals she saw roaming in the forest is comparably low.,NA,2,NA,Wed Aug 11 2021 00:37:24 GMT+0200 (Mitteleuropäische Sommerzeit),1628635044366,37.3936,NA,fill_conclusion,12,filler-plau
2438,The judge asks:|The witness responds:,2814,24,Some of the sentences weren't understandable enough for me (answers like comparably low/high when the question wasn't about numbers). Sometimes I did forget the last sentence and couldn't really concentrate on the present one. It would've been helpful for me if I saw all 3 sentences at once. At the end I couldn't concentrate well because I was excited about ending the experiment (took too long and the sentences were all identical). Happy that I made it :),WHAT,Graduated High School,1628637287982,277,female,4,bulgarian,Next,NA,NA,What did you see in front of the bank?,NA,Next,NA,Wed Aug 11 2021 00:37:24 GMT+0200 (Mitteleuropäische Sommerzeit),1628635044366,37.3936,NA,question_view,7,main
2438,,NA,24,Some of the sentences weren't understandable enough for me (answers like comparably low/high when the question wasn't about numbers). Sometimes I did forget the last sentence and couldn't really concentrate on the present one. It would've been helpful for me if I saw all 3 sentences at once. At the end I couldn't concentrate well because I was excited about ending the experiment (took too long and the sentences were all identical). Happy that I made it :),COMP,Graduated High School,1628637287982,277,female,4,bulgarian,next,NA,NA,,190|158|175|174|183|189|159|198|158|373|166|2314|160,next,I | saw | less | than | ten | of | the | robbers | in | front | of | the | bank.,Wed Aug 11 2021 00:37:24 GMT+0200 (Mitteleuropäische Sommerzeit),1628635044366,37.3936,7781,answer_view,7,main
2438,"Based on this, the judge concludes:|How justified is the judge in drawing that conclusion?",7595,24,Some of the sentences weren't understandable enough for me (answers like comparably low/high when the question wasn't about numbers). Sometimes I did forget the last sentence and couldn't really concentrate on the present one. It would've been helpful for me if I saw all 3 sentences at once. At the end I couldn't concentrate well because I was excited about ending the experiment (took too long and the sentences were all identical). Happy that I made it :),NA,Graduated High School,1628637287982,277,female,4,bulgarian,NA,not justifiable at all,strongly justifiable,The witness doesn’t know exactly how many of the robbers she saw in front of the bank.,NA,4,NA,Wed Aug 11 2021 00:37:24 GMT+0200 (Mitteleuropäische Sommerzeit),1628635044366,37.3936,NA,conclusion_view,7,main
2438,The judge asks:|The witness responds:,8812,24,Some of the sentences weren't understandable enough for me (answers like comparably low/high when the question wasn't about numbers). Sometimes I did forget the last sentence and couldn't really concentrate on the present one. It would've been helpful for me if I saw all 3 sentences at once. At the end I couldn't concentrate well because I was excited about ending the experiment (took too long and the sentences were all identical). Happy that I made it :),WHAT,Graduated High School,1628637287982,277,female,3,bulgarian,Next,NA,NA,What did you hear coming from the school shooting?,NA,Next,NA,Wed Aug 11 2021 00:37:24 GMT+0200 (Mitteleuropäische Sommerzeit),1628635044366,37.3936,NA,question_view,8,main
2438,,NA,24,Some of the sentences weren't understandable enough for me (answers like comparably low/high when the question wasn't about numbers). Sometimes I did forget the last sentence and couldn't really concentrate on the present one. It would've been helpful for me if I saw all 3 sentences at once. At the end I couldn't concentrate well because I was excited about ending the experiment (took too long and the sentences were all identical). Happy that I made it :),COMP,Graduated High School,1628637287982,277,female,3,bulgarian,next,NA,NA,,200|181|174|134|174|231|190|182|527|166|183|182|1595,next, I | heard | less | than | ten | of | the | shots | coming | from | the | school | shooting.,Wed Aug 11 2021 00:37:24 GMT+0200 (Mitteleuropäische Sommerzeit),1628635044366,37.3936,8120,answer_view,8,main
2438,"Based on this, the judge concludes:|How justified is the judge in drawing that conclusion?",6722,24,Some of the sentences weren't understandable enough for me (answers like comparably low/high when the question wasn't about numbers). Sometimes I did forget the last sentence and couldn't really concentrate on the present one. It would've been helpful for me if I saw all 3 sentences at once. At the end I couldn't concentrate well because I was excited about ending the experiment (took too long and the sentences were all identical). Happy that I made it :),NA,Graduated High School,1628637287982,277,female,3,bulgarian,NA,not justifiable at all,strongly justifiable,The witness doesn’t know exactly how many of the shots she heard coming from the school shooting.,NA,4,NA,Wed Aug 11 2021 00:37:24 GMT+0200 (Mitteleuropäische Sommerzeit),1628635044366,37.3936,NA,conclusion_view,8,main
2438,The judge asks:|The witness responds:,2298,24,Some of the sentences weren't understandable enough for me (answers like comparably low/high when the question wasn't about numbers). Sometimes I did forget the last sentence and couldn't really concentrate on the present one. It would've been helpful for me if I saw all 3 sentences at once. At the end I couldn't concentrate well because I was excited about ending the experiment (took too long and the sentences were all identical). Happy that I made it :),WHAT,Graduated High School,1628637287982,277,female,1,bulgarian,Next,NA,NA,What did you find in the wallet?,NA,Next,NA,Wed Aug 11 2021 00:37:24 GMT+0200 (Mitteleuropäische Sommerzeit),1628635044366,37.3936,NA,question_view,9,main
2438,,NA,24,Some of the sentences weren't understandable enough for me (answers like comparably low/high when the question wasn't about numbers). Sometimes I did forget the last sentence and couldn't really concentrate on the present one. It would've been helpful for me if I saw all 3 sentences at once. At the end I couldn't concentrate well because I was excited about ending the experiment (took too long and the sentences were all identical). Happy that I made it :),COMP,Graduated High School,1628637287982,277,female,1,bulgarian,next,NA,NA,,254|142|359|206|214|183|150|238|191|190|176,next,I | found | less | than | ten | of | the | coins | in | the | wallet.,Wed Aug 11 2021 00:37:24 GMT+0200 (Mitteleuropäische Sommerzeit),1628635044366,37.3936,5331,answer_view,9,main
2438,"Based on this, the judge concludes:|How justified is the judge in drawing that conclusion?",3476,24,Some of the sentences weren't understandable enough for me (answers like comparably low/high when the question wasn't about numbers). Sometimes I did forget the last sentence and couldn't really concentrate on the present one. It would've been helpful for me if I saw all 3 sentences at once. At the end I couldn't concentrate well because I was excited about ending the experiment (took too long and the sentences were all identical). Happy that I made it :),NA,Graduated High School,1628637287982,277,female,1,bulgarian,NA,not justifiable at all,strongly justifiable,The witness doesn’t know exactly how many of the coins she found in the wallet.,NA,4,NA,Wed Aug 11 2021 00:37:24 GMT+0200 (Mitteleuropäische Sommerzeit),1628635044366,37.3936,NA,conclusion_view,9,main
2438,The judge asks:|The witness responds:,3161,24,Some of the sentences weren't understandable enough for me (answers like comparably low/high when the question wasn't about numbers). Sometimes I did forget the last sentence and couldn't really concentrate on the present one. It would've been helpful for me if I saw all 3 sentences at once. At the end I couldn't concentrate well because I was excited about ending the experiment (took too long and the sentences were all identical). Happy that I made it :),WHAT,Graduated High School,1628637287982,277,female,5,bulgarian,Next,NA,NA,What did you see in the purse?,NA,Next,NA,Wed Aug 11 2021 00:37:24 GMT+0200 (Mitteleuropäische Sommerzeit),1628635044366,37.3936,NA,question_view,10,main
2438,,NA,24,Some of the sentences weren't understandable enough for me (answers like comparably low/high when the question wasn't about numbers). Sometimes I did forget the last sentence and couldn't really concentrate on the present one. It would've been helpful for me if I saw all 3 sentences at once. At the end I couldn't concentrate well because I was excited about ending the experiment (took too long and the sentences were all identical). Happy that I made it :),COMP,Graduated High School,1628637287982,277,female,5,bulgarian,next,NA,NA,,222|166|191|350|191|182|182|158|303|246|176,next,I | saw | less | than | ten | of | the | bills | in  | the | purse.,Wed Aug 11 2021 00:37:24 GMT+0200 (Mitteleuropäische Sommerzeit),1628635044366,37.3936,6244,answer_view,10,main
2438,"Based on this, the judge concludes:|How justified is the judge in drawing that conclusion?",2868,24,Some of the sentences weren't understandable enough for me (answers like comparably low/high when the question wasn't about numbers). Sometimes I did forget the last sentence and couldn't really concentrate on the present one. It would've been helpful for me if I saw all 3 sentences at once. At the end I couldn't concentrate well because I was excited about ending the experiment (took too long and the sentences were all identical). Happy that I made it :),NA,Graduated High School,1628637287982,277,female,5,bulgarian,NA,not justifiable at all,strongly justifiable,The witness doesn’t know exactly how many of the bills she saw in the purse.,NA,4,NA,Wed Aug 11 2021 00:37:24 GMT+0200 (Mitteleuropäische Sommerzeit),1628635044366,37.3936,NA,conclusion_view,10,main
2438,The judge asks:|The witness responds:,3022,24,Some of the sentences weren't understandable enough for me (answers like comparably low/high when the question wasn't about numbers). Sometimes I did forget the last sentence and couldn't really concentrate on the present one. It would've been helpful for me if I saw all 3 sentences at once. At the end I couldn't concentrate well because I was excited about ending the experiment (took too long and the sentences were all identical). Happy that I made it :),WHAT,Graduated High School,1628637287982,277,female,6,bulgarian,Next,NA,NA,What did you see on the kitchen counter?,NA,Next,NA,Wed Aug 11 2021 00:37:24 GMT+0200 (Mitteleuropäische Sommerzeit),1628635044366,37.3936,NA,question_view,11,main
2438,,NA,24,Some of the sentences weren't understandable enough for me (answers like comparably low/high when the question wasn't about numbers). Sometimes I did forget the last sentence and couldn't really concentrate on the present one. It would've been helpful for me if I saw all 3 sentences at once. At the end I couldn't concentrate well because I was excited about ending the experiment (took too long and the sentences were all identical). Happy that I made it :),COMP,Graduated High School,1628637287982,277,female,6,bulgarian,next,NA,NA,,182|167|366|207|374|199|190|182|143|238|199|174|177,next,I | saw | less | than | ten | of | the | shot | glasses | on | the | kitchen | counter.,Wed Aug 11 2021 00:37:24 GMT+0200 (Mitteleuropäische Sommerzeit),1628635044366,37.3936,5310,answer_view,11,main
2438,"Based on this, the judge concludes:|How justified is the judge in drawing that conclusion?",5021,24,Some of the sentences weren't understandable enough for me (answers like comparably low/high when the question wasn't about numbers). Sometimes I did forget the last sentence and couldn't really concentrate on the present one. It would've been helpful for me if I saw all 3 sentences at once. At the end I couldn't concentrate well because I was excited about ending the experiment (took too long and the sentences were all identical). Happy that I made it :),NA,Graduated High School,1628637287982,277,female,6,bulgarian,NA,not justifiable at all,strongly justifiable,The witness doesn’t know exactly how many of the shot glasses she saw on the kitchen counter.,NA,4,NA,Wed Aug 11 2021 00:37:24 GMT+0200 (Mitteleuropäische Sommerzeit),1628635044366,37.3936,NA,conclusion_view,11,main
2438,The judge asks:|The witness responds:,2946,24,Some of the sentences weren't understandable enough for me (answers like comparably low/high when the question wasn't about numbers). Sometimes I did forget the last sentence and couldn't really concentrate on the present one. It would've been helpful for me if I saw all 3 sentences at once. At the end I couldn't concentrate well because I was excited about ending the experiment (took too long and the sentences were all identical). Happy that I made it :),WHAT,Graduated High School,1628637287982,277,female,2,bulgarian,Next,NA,NA,What did you find in the bag?,NA,Next,NA,Wed Aug 11 2021 00:37:24 GMT+0200 (Mitteleuropäische Sommerzeit),1628635044366,37.3936,NA,question_view,12,main
2438,,NA,24,Some of the sentences weren't understandable enough for me (answers like comparably low/high when the question wasn't about numbers). Sometimes I did forget the last sentence and couldn't really concentrate on the present one. It would've been helpful for me if I saw all 3 sentences at once. At the end I couldn't concentrate well because I was excited about ending the experiment (took too long and the sentences were all identical). Happy that I made it :),COMP,Graduated High School,1628637287982,277,female,2,bulgarian,next,NA,NA,,165|135|214|182|183|174|198|175|166|166|175,next, I | found | less | than | ten | of | the | pills | in  | the | bag.,Wed Aug 11 2021 00:37:24 GMT+0200 (Mitteleuropäische Sommerzeit),1628635044366,37.3936,4200,answer_view,12,main
2438,"Based on this, the judge concludes:|How justified is the judge in drawing that conclusion?",2810,24,Some of the sentences weren't understandable enough for me (answers like comparably low/high when the question wasn't about numbers). Sometimes I did forget the last sentence and couldn't really concentrate on the present one. It would've been helpful for me if I saw all 3 sentences at once. At the end I couldn't concentrate well because I was excited about ending the experiment (took too long and the sentences were all identical). Happy that I made it :),NA,Graduated High School,1628637287982,277,female,2,bulgarian,NA,not justifiable at all,strongly justifiable,The witness doesn’t know exactly how many of the pills she found in the bag.,NA,4,NA,Wed Aug 11 2021 00:37:24 GMT+0200 (Mitteleuropäische Sommerzeit),1628635044366,37.3936,NA,conclusion_view,12,main
2438,The judge asks:|The witness responds:,8033,24,Some of the sentences weren't understandable enough for me (answers like comparably low/high when the question wasn't about numbers). Sometimes I did forget the last sentence and couldn't really concentrate on the present one. It would've been helpful for me if I saw all 3 sentences at once. At the end I couldn't concentrate well because I was excited about ending the experiment (took too long and the sentences were all identical). Happy that I made it :),HOWMANY,Graduated High School,1628637287982,277,female,1,bulgarian,Next,NA,NA,How many slices of the bread did you see on the kitchen counter?,NA,Next,NA,Wed Aug 11 2021 00:37:24 GMT+0200 (Mitteleuropäische Sommerzeit),1628635044366,37.3936,NA,fill_question,13,filler-implau
2438,,NA,24,Some of the sentences weren't understandable enough for me (answers like comparably low/high when the question wasn't about numbers). Sometimes I did forget the last sentence and couldn't really concentrate on the present one. It would've been helpful for me if I saw all 3 sentences at once. At the end I couldn't concentrate well because I was excited about ending the experiment (took too long and the sentences were all identical). Happy that I made it :),COMP,Graduated High School,1628637287982,277,female,1,bulgarian,Next,NA,NA,,206|357|206|357|183|166|376|190|175|182|182|167|166|1282,Next,I | only | saw | less | than | ten | of | the | bread | slices | on | the | kitchen | counter.,Wed Aug 11 2021 00:37:24 GMT+0200 (Mitteleuropäische Sommerzeit),1628635044366,37.3936,7142,fill_answer,13,filler-implau
2438,"Based on this, the judge concludes:|How justified is the judge in drawing that conclusion?",6586,24,Some of the sentences weren't understandable enough for me (answers like comparably low/high when the question wasn't about numbers). Sometimes I did forget the last sentence and couldn't really concentrate on the present one. It would've been helpful for me if I saw all 3 sentences at once. At the end I couldn't concentrate well because I was excited about ending the experiment (took too long and the sentences were all identical). Happy that I made it :),NA,Graduated High School,1628637287982,277,female,1,bulgarian,NA,not justifiable at all,strongly justifiable,The witness thinks that the number of the bread slices she saw on the kitchen counter is considerably high.,NA,1,NA,Wed Aug 11 2021 00:37:24 GMT+0200 (Mitteleuropäische Sommerzeit),1628635044366,37.3936,NA,fill_conclusion,13,filler-implau
2438,The judge asks:|The witness responds:,3576,24,Some of the sentences weren't understandable enough for me (answers like comparably low/high when the question wasn't about numbers). Sometimes I did forget the last sentence and couldn't really concentrate on the present one. It would've been helpful for me if I saw all 3 sentences at once. At the end I couldn't concentrate well because I was excited about ending the experiment (took too long and the sentences were all identical). Happy that I made it :),DID,Graduated High School,1628637287982,277,female,2,bulgarian,Next,NA,NA,Did you only see ten of the balloons flying in the air?,NA,Next,NA,Wed Aug 11 2021 00:37:24 GMT+0200 (Mitteleuropäische Sommerzeit),1628635044366,37.3936,NA,fill_question,14,filler-plau
2438,,NA,24,Some of the sentences weren't understandable enough for me (answers like comparably low/high when the question wasn't about numbers). Sometimes I did forget the last sentence and couldn't really concentrate on the present one. It would've been helpful for me if I saw all 3 sentences at once. At the end I couldn't concentrate well because I was excited about ending the experiment (took too long and the sentences were all identical). Happy that I made it :),COMP,Graduated High School,1628637287982,277,female,2,bulgarian,Next,NA,NA,,350|429|199|174|183|168|182|164|175|185|173|190|152,Next,I | probably | saw | less | than | ten | of | the | balloons | flying | in | the | air.,Wed Aug 11 2021 00:37:24 GMT+0200 (Mitteleuropäische Sommerzeit),1628635044366,37.3936,5291,fill_answer,14,filler-plau
2438,"Based on this, the judge concludes:|How justified is the judge in drawing that conclusion?",6711,24,Some of the sentences weren't understandable enough for me (answers like comparably low/high when the question wasn't about numbers). Sometimes I did forget the last sentence and couldn't really concentrate on the present one. It would've been helpful for me if I saw all 3 sentences at once. At the end I couldn't concentrate well because I was excited about ending the experiment (took too long and the sentences were all identical). Happy that I made it :),NA,Graduated High School,1628637287982,277,female,2,bulgarian,NA,not justifiable at all,strongly justifiable,The witness thinks that the number of the balloons she saw flying in the air is comparably low.,NA,5,NA,Wed Aug 11 2021 00:37:24 GMT+0200 (Mitteleuropäische Sommerzeit),1628635044366,37.3936,NA,fill_conclusion,14,filler-plau
2438,The judge asks:|The witness responds:,9445,24,Some of the sentences weren't understandable enough for me (answers like comparably low/high when the question wasn't about numbers). Sometimes I did forget the last sentence and couldn't really concentrate on the present one. It would've been helpful for me if I saw all 3 sentences at once. At the end I couldn't concentrate well because I was excited about ending the experiment (took too long and the sentences were all identical). Happy that I made it :),DID,Graduated High School,1628637287982,277,female,2,bulgarian,Next,NA,NA,Did you certainly see ten balloons flying in the air?,NA,Next,NA,Wed Aug 11 2021 00:37:24 GMT+0200 (Mitteleuropäische Sommerzeit),1628635044366,37.3936,NA,fill_question,15,filler-oi
2438,,NA,24,Some of the sentences weren't understandable enough for me (answers like comparably low/high when the question wasn't about numbers). Sometimes I did forget the last sentence and couldn't really concentrate on the present one. It would've been helpful for me if I saw all 3 sentences at once. At the end I couldn't concentrate well because I was excited about ending the experiment (took too long and the sentences were all identical). Happy that I made it :),SUP,Graduated High School,1628637287982,277,female,2,bulgarian,Next,NA,NA,,174|263|214|167|141|223|174|183|174|190|176,Next,I | probably | saw | at | most | ten | balloons | flying | in | the | air.,Wed Aug 11 2021 00:37:24 GMT+0200 (Mitteleuropäische Sommerzeit),1628635044366,37.3936,4827,fill_answer,15,filler-oi
2438,"Based on this, the judge concludes:|How justified is the judge in drawing that conclusion?",5156,24,Some of the sentences weren't understandable enough for me (answers like comparably low/high when the question wasn't about numbers). Sometimes I did forget the last sentence and couldn't really concentrate on the present one. It would've been helpful for me if I saw all 3 sentences at once. At the end I couldn't concentrate well because I was excited about ending the experiment (took too long and the sentences were all identical). Happy that I made it :),NA,Graduated High School,1628637287982,277,female,2,bulgarian,NA,not justifiable at all,strongly justifiable,The witness considers it possible that she saw eleven balloons flying in the air.,NA,1,NA,Wed Aug 11 2021 00:37:24 GMT+0200 (Mitteleuropäische Sommerzeit),1628635044366,37.3936,NA,fill_conclusion,15,filler-oi
2438,The judge asks:|The witness responds:,4378,24,Some of the sentences weren't understandable enough for me (answers like comparably low/high when the question wasn't about numbers). Sometimes I did forget the last sentence and couldn't really concentrate on the present one. It would've been helpful for me if I saw all 3 sentences at once. At the end I couldn't concentrate well because I was excited about ending the experiment (took too long and the sentences were all identical). Happy that I made it :),POLAR,Graduated High School,1628637287982,277,female,3,bulgarian,Next,NA,NA,Did you find at most ten corpses in the office?,NA,Next,NA,Wed Aug 11 2021 00:37:24 GMT+0200 (Mitteleuropäische Sommerzeit),1628635044366,37.3936,NA,fill_question,16,filler-oi
2438,,NA,24,Some of the sentences weren't understandable enough for me (answers like comparably low/high when the question wasn't about numbers). Sometimes I did forget the last sentence and couldn't really concentrate on the present one. It would've been helpful for me if I saw all 3 sentences at once. At the end I couldn't concentrate well because I was excited about ending the experiment (took too long and the sentences were all identical). Happy that I made it :),SUP,Graduated High School,1628637287982,277,female,3,bulgarian,Next,NA,NA,,205|207|174|166|223|174|190|327|159,Next,I | found | at | most | ten | corpses | in | the | office.,Wed Aug 11 2021 00:37:24 GMT+0200 (Mitteleuropäische Sommerzeit),1628635044366,37.3936,4534,fill_answer,16,filler-oi
2438,"Based on this, the judge concludes:|How justified is the judge in drawing that conclusion?",3930,24,Some of the sentences weren't understandable enough for me (answers like comparably low/high when the question wasn't about numbers). Sometimes I did forget the last sentence and couldn't really concentrate on the present one. It would've been helpful for me if I saw all 3 sentences at once. At the end I couldn't concentrate well because I was excited about ending the experiment (took too long and the sentences were all identical). Happy that I made it :),NA,Graduated High School,1628637287982,277,female,3,bulgarian,NA,not justifiable at all,strongly justifiable,The witness considers it possible that they saw eleven corpses at the office.,NA,1,NA,Wed Aug 11 2021 00:37:24 GMT+0200 (Mitteleuropäische Sommerzeit),1628635044366,37.3936,NA,fill_conclusion,16,filler-oi
2438,The judge asks:|The witness responds:,2723,24,Some of the sentences weren't understandable enough for me (answers like comparably low/high when the question wasn't about numbers). Sometimes I did forget the last sentence and couldn't really concentrate on the present one. It would've been helpful for me if I saw all 3 sentences at once. At the end I couldn't concentrate well because I was excited about ending the experiment (took too long and the sentences were all identical). Happy that I made it :),DID,Graduated High School,1628637287982,277,female,5,bulgarian,Next,NA,NA,Did you hear women shouting at this event?,NA,Next,NA,Wed Aug 11 2021 00:37:24 GMT+0200 (Mitteleuropäische Sommerzeit),1628635044366,37.3936,NA,fill_question,17,filler-plau
2438,,NA,24,Some of the sentences weren't understandable enough for me (answers like comparably low/high when the question wasn't about numbers). Sometimes I did forget the last sentence and couldn't really concentrate on the present one. It would've been helpful for me if I saw all 3 sentences at once. At the end I couldn't concentrate well because I was excited about ending the experiment (took too long and the sentences were all identical). Happy that I made it :),COMP,Graduated High School,1628637287982,277,female,5,bulgarian,Next,NA,NA,,102|231|206|389|1555|551|206|191|168,Next,I | heard | less| than | ten | women | shouting | at | this | event.,Wed Aug 11 2021 00:37:24 GMT+0200 (Mitteleuropäische Sommerzeit),1628635044366,37.3936,6488,fill_answer,17,filler-plau
2438,"Based on this, the judge concludes:|How justified is the judge in drawing that conclusion?",11098,24,Some of the sentences weren't understandable enough for me (answers like comparably low/high when the question wasn't about numbers). Sometimes I did forget the last sentence and couldn't really concentrate on the present one. It would've been helpful for me if I saw all 3 sentences at once. At the end I couldn't concentrate well because I was excited about ending the experiment (took too long and the sentences were all identical). Happy that I made it :),NA,Graduated High School,1628637287982,277,female,5,bulgarian,NA,not justifiable at all,strongly justifiable,The witness thinks the number of women she heard shouting at this event is comparably low.,NA,4,NA,Wed Aug 11 2021 00:37:24 GMT+0200 (Mitteleuropäische Sommerzeit),1628635044366,37.3936,NA,fill_conclusion,17,filler-plau
2438,The judge asks:|The witness responds:,3621,24,Some of the sentences weren't understandable enough for me (answers like comparably low/high when the question wasn't about numbers). Sometimes I did forget the last sentence and couldn't really concentrate on the present one. It would've been helpful for me if I saw all 3 sentences at once. At the end I couldn't concentrate well because I was excited about ending the experiment (took too long and the sentences were all identical). Happy that I made it :),POLAR,Graduated High School,1628637287982,277,female,7,bulgarian,Next,NA,NA,Did you find at most ten of the lollipops in the drawer?,NA,Next,NA,Wed Aug 11 2021 00:37:24 GMT+0200 (Mitteleuropäische Sommerzeit),1628635044366,37.3936,NA,fill_question,18,filler-ov
2438,,NA,24,Some of the sentences weren't understandable enough for me (answers like comparably low/high when the question wasn't about numbers). Sometimes I did forget the last sentence and couldn't really concentrate on the present one. It would've been helpful for me if I saw all 3 sentences at once. At the end I couldn't concentrate well because I was excited about ending the experiment (took too long and the sentences were all identical). Happy that I made it :),SUP,Graduated High School,1628637287982,277,female,7,bulgarian,Next,NA,NA,,327|342|359|303|206|182|198|182|184|214,Next,I | found | at | most | ten of | the | lollipops | in | the | drawer.,Wed Aug 11 2021 00:37:24 GMT+0200 (Mitteleuropäische Sommerzeit),1628635044366,37.3936,6276,fill_answer,18,filler-ov
2438,"Based on this, the judge concludes:|How justified is the judge in drawing that conclusion?",5004,24,Some of the sentences weren't understandable enough for me (answers like comparably low/high when the question wasn't about numbers). Sometimes I did forget the last sentence and couldn't really concentrate on the present one. It would've been helpful for me if I saw all 3 sentences at once. At the end I couldn't concentrate well because I was excited about ending the experiment (took too long and the sentences were all identical). Happy that I made it :),NA,Graduated High School,1628637287982,277,female,7,bulgarian,NA,not justifiable at all,strongly justifiable,The witness considers it possible that she found ten of the lollipops in the drawer.,NA,5,NA,Wed Aug 11 2021 00:37:24 GMT+0200 (Mitteleuropäische Sommerzeit),1628635044366,37.3936,NA,fill_conclusion,18,filler-ov
2438,The judge asks:|The witness responds:,4187,24,Some of the sentences weren't understandable enough for me (answers like comparably low/high when the question wasn't about numbers). Sometimes I did forget the last sentence and couldn't really concentrate on the present one. It would've been helpful for me if I saw all 3 sentences at once. At the end I couldn't concentrate well because I was excited about ending the experiment (took too long and the sentences were all identical). Happy that I made it :),POLAR,Graduated High School,1628637287982,277,female,3,bulgarian,Next,NA,NA,Did you certainly find less than ten corpses in the office?,NA,Next,NA,Wed Aug 11 2021 00:37:24 GMT+0200 (Mitteleuropäische Sommerzeit),1628635044366,37.3936,NA,fill_question,19,filler-oi
2438,,NA,24,Some of the sentences weren't understandable enough for me (answers like comparably low/high when the question wasn't about numbers). Sometimes I did forget the last sentence and couldn't really concentrate on the present one. It would've been helpful for me if I saw all 3 sentences at once. At the end I couldn't concentrate well because I was excited about ending the experiment (took too long and the sentences were all identical). Happy that I made it :),COMP,Graduated High School,1628637287982,277,female,3,bulgarian,Next,NA,NA,,190|565|182|199|182|174|351|198|176,Next,I | found | less | than | ten | corpses | in | the | office.,Wed Aug 11 2021 00:37:24 GMT+0200 (Mitteleuropäische Sommerzeit),1628635044366,37.3936,5319,fill_answer,19,filler-oi
2438,"Based on this, the judge concludes:|How justified is the judge in drawing that conclusion?",3552,24,Some of the sentences weren't understandable enough for me (answers like comparably low/high when the question wasn't about numbers). Sometimes I did forget the last sentence and couldn't really concentrate on the present one. It would've been helpful for me if I saw all 3 sentences at once. At the end I couldn't concentrate well because I was excited about ending the experiment (took too long and the sentences were all identical). Happy that I made it :),NA,Graduated High School,1628637287982,277,female,3,bulgarian,NA,not justifiable at all,strongly justifiable,The witness considers it possible that she saw eleven corpses at the office.,NA,1,NA,Wed Aug 11 2021 00:37:24 GMT+0200 (Mitteleuropäische Sommerzeit),1628635044366,37.3936,NA,fill_conclusion,19,filler-oi
2438,The judge asks:|The witness responds:,2770,24,Some of the sentences weren't understandable enough for me (answers like comparably low/high when the question wasn't about numbers). Sometimes I did forget the last sentence and couldn't really concentrate on the present one. It would've been helpful for me if I saw all 3 sentences at once. At the end I couldn't concentrate well because I was excited about ending the experiment (took too long and the sentences were all identical). Happy that I made it :),WHAT,Graduated High School,1628637287982,277,female,2,bulgarian,Next,NA,NA,What did you certainly see flying in the air?,NA,Next,NA,Wed Aug 11 2021 00:37:24 GMT+0200 (Mitteleuropäische Sommerzeit),1628635044366,37.3936,NA,fill_question,20,filler-ov
2438,,NA,24,Some of the sentences weren't understandable enough for me (answers like comparably low/high when the question wasn't about numbers). Sometimes I did forget the last sentence and couldn't really concentrate on the present one. It would've been helpful for me if I saw all 3 sentences at once. At the end I couldn't concentrate well because I was excited about ending the experiment (took too long and the sentences were all identical). Happy that I made it :),SUP,Graduated High School,1628637287982,277,female,2,bulgarian,Next,NA,NA,,206|398|159|246|191|142|246|190|191|174|182|176,Next,I | saw | at | most | ten | of | the | balloons | flying | in | the | air.,Wed Aug 11 2021 00:37:24 GMT+0200 (Mitteleuropäische Sommerzeit),1628635044366,37.3936,5560,fill_answer,20,filler-ov
2438,"Based on this, the judge concludes:|How justified is the judge in drawing that conclusion?",6714,24,Some of the sentences weren't understandable enough for me (answers like comparably low/high when the question wasn't about numbers). Sometimes I did forget the last sentence and couldn't really concentrate on the present one. It would've been helpful for me if I saw all 3 sentences at once. At the end I couldn't concentrate well because I was excited about ending the experiment (took too long and the sentences were all identical). Happy that I made it :),NA,Graduated High School,1628637287982,277,female,2,bulgarian,NA,not justifiable at all,strongly justifiable,The witness considers it possible that she saw ten of the balloons flying in the air.,NA,4,NA,Wed Aug 11 2021 00:37:24 GMT+0200 (Mitteleuropäische Sommerzeit),1628635044366,37.3936,NA,fill_conclusion,20,filler-ov
2438,The judge asks:|The witness responds:,3640,24,Some of the sentences weren't understandable enough for me (answers like comparably low/high when the question wasn't about numbers). Sometimes I did forget the last sentence and couldn't really concentrate on the present one. It would've been helpful for me if I saw all 3 sentences at once. At the end I couldn't concentrate well because I was excited about ending the experiment (took too long and the sentences were all identical). Happy that I made it :),DID,Graduated High School,1628637287982,277,female,4,bulgarian,Next,NA,NA,Did you find children while trying to escape the fire?,NA,Next,NA,Wed Aug 11 2021 00:37:24 GMT+0200 (Mitteleuropäische Sommerzeit),1628635044366,37.3936,NA,fill_question,21,filler-implau
2438,,NA,24,Some of the sentences weren't understandable enough for me (answers like comparably low/high when the question wasn't about numbers). Sometimes I did forget the last sentence and couldn't really concentrate on the present one. It would've been helpful for me if I saw all 3 sentences at once. At the end I couldn't concentrate well because I was excited about ending the experiment (took too long and the sentences were all identical). Happy that I made it :),SUP,Graduated High School,1628637287982,277,female,4,bulgarian,Next,NA,NA,,422|199|190|166|191|182|191|174|182|183|166|200,Next,I | found | at | most | ten | children | while | trying | to | escape | the | fire.,Wed Aug 11 2021 00:37:24 GMT+0200 (Mitteleuropäische Sommerzeit),1628635044366,37.3936,5541,fill_answer,21,filler-implau
2438,"Based on this, the judge concludes:|How justified is the judge in drawing that conclusion?",5203,24,Some of the sentences weren't understandable enough for me (answers like comparably low/high when the question wasn't about numbers). Sometimes I did forget the last sentence and couldn't really concentrate on the present one. It would've been helpful for me if I saw all 3 sentences at once. At the end I couldn't concentrate well because I was excited about ending the experiment (took too long and the sentences were all identical). Happy that I made it :),NA,Graduated High School,1628637287982,277,female,4,bulgarian,NA,not justifiable at all,strongly justifiable,The witness thinks the number of children they found trying to escape the fire is comparably high.,NA,2,NA,Wed Aug 11 2021 00:37:24 GMT+0200 (Mitteleuropäische Sommerzeit),1628635044366,37.3936,NA,fill_conclusion,21,filler-implau
2438,The judge asks:|The witness responds:,2635,24,Some of the sentences weren't understandable enough for me (answers like comparably low/high when the question wasn't about numbers). Sometimes I did forget the last sentence and couldn't really concentrate on the present one. It would've been helpful for me if I saw all 3 sentences at once. At the end I couldn't concentrate well because I was excited about ending the experiment (took too long and the sentences were all identical). Happy that I made it :),WHAT,Graduated High School,1628637287982,277,female,1,bulgarian,Next,NA,NA,What did you certainly see on the kitchen counter?,NA,Next,NA,Wed Aug 11 2021 00:37:24 GMT+0200 (Mitteleuropäische Sommerzeit),1628635044366,37.3936,NA,fill_question,22,filler-implau
2438,,NA,24,Some of the sentences weren't understandable enough for me (answers like comparably low/high when the question wasn't about numbers). Sometimes I did forget the last sentence and couldn't really concentrate on the present one. It would've been helpful for me if I saw all 3 sentences at once. At the end I couldn't concentrate well because I was excited about ending the experiment (took too long and the sentences were all identical). Happy that I made it :),COMP,Graduated High School,1628637287982,277,female,1,bulgarian,Next,NA,NA,,326|270|207|198|198|183|182|182|175|182|166|175|168,Next,I | saw | less | than | ten | of | the | bread | slices | on | the | kitchen | counter.,Wed Aug 11 2021 00:37:24 GMT+0200 (Mitteleuropäische Sommerzeit),1628635044366,37.3936,5761,fill_answer,22,filler-implau
2438,"Based on this, the judge concludes:|How justified is the judge in drawing that conclusion?",6421,24,Some of the sentences weren't understandable enough for me (answers like comparably low/high when the question wasn't about numbers). Sometimes I did forget the last sentence and couldn't really concentrate on the present one. It would've been helpful for me if I saw all 3 sentences at once. At the end I couldn't concentrate well because I was excited about ending the experiment (took too long and the sentences were all identical). Happy that I made it :),NA,Graduated High School,1628637287982,277,female,1,bulgarian,NA,not justifiable at all,strongly justifiable,The witness thinks that the number of the bread slices is considerably high.,NA,2,NA,Wed Aug 11 2021 00:37:24 GMT+0200 (Mitteleuropäische Sommerzeit),1628635044366,37.3936,NA,fill_conclusion,22,filler-implau
2438,The judge asks:|The witness responds:,2113,24,Some of the sentences weren't understandable enough for me (answers like comparably low/high when the question wasn't about numbers). Sometimes I did forget the last sentence and couldn't really concentrate on the present one. It would've been helpful for me if I saw all 3 sentences at once. At the end I couldn't concentrate well because I was excited about ending the experiment (took too long and the sentences were all identical). Happy that I made it :),WHAT,Graduated High School,1628637287982,277,female,7,bulgarian,Next,NA,NA,What did you certainly find in the drawer?,NA,Next,NA,Wed Aug 11 2021 00:37:24 GMT+0200 (Mitteleuropäische Sommerzeit),1628635044366,37.3936,NA,fill_question,23,filler-oi
2438,,NA,24,Some of the sentences weren't understandable enough for me (answers like comparably low/high when the question wasn't about numbers). Sometimes I did forget the last sentence and couldn't really concentrate on the present one. It would've been helpful for me if I saw all 3 sentences at once. At the end I couldn't concentrate well because I was excited about ending the experiment (took too long and the sentences were all identical). Happy that I made it :),COMP,Graduated High School,1628637287982,277,female,7,bulgarian,Next,NA,NA,,212|375|262|198|263|238|431|174|151|174|160,Next,I | found | less | than | ten | of | the | lollipops | in | the | drawer.,Wed Aug 11 2021 00:37:24 GMT+0200 (Mitteleuropäische Sommerzeit),1628635044366,37.3936,6448,fill_answer,23,filler-oi
2438,"Based on this, the judge concludes:|How justified is the judge in drawing that conclusion?",3619,24,Some of the sentences weren't understandable enough for me (answers like comparably low/high when the question wasn't about numbers). Sometimes I did forget the last sentence and couldn't really concentrate on the present one. It would've been helpful for me if I saw all 3 sentences at once. At the end I couldn't concentrate well because I was excited about ending the experiment (took too long and the sentences were all identical). Happy that I made it :),NA,Graduated High School,1628637287982,277,female,7,bulgarian,NA,not justifiable at all,strongly justifiable,The witness considers it possible that she found eleven of the lollipops in the drawer.,NA,1,NA,Wed Aug 11 2021 00:37:24 GMT+0200 (Mitteleuropäische Sommerzeit),1628635044366,37.3936,NA,fill_conclusion,23,filler-oi
2438,The judge asks:|The witness responds:,5632,24,Some of the sentences weren't understandable enough for me (answers like comparably low/high when the question wasn't about numbers). Sometimes I did forget the last sentence and couldn't really concentrate on the present one. It would've been helpful for me if I saw all 3 sentences at once. At the end I couldn't concentrate well because I was excited about ending the experiment (took too long and the sentences were all identical). Happy that I made it :),DID,Graduated High School,1628637287982,277,female,7,bulgarian,Next,NA,NA,Did you only see ten of the lollipops in the drawer?,NA,Next,NA,Wed Aug 11 2021 00:37:24 GMT+0200 (Mitteleuropäische Sommerzeit),1628635044366,37.3936,NA,fill_question,24,filler-ov
2438,,NA,24,Some of the sentences weren't understandable enough for me (answers like comparably low/high when the question wasn't about numbers). Sometimes I did forget the last sentence and couldn't really concentrate on the present one. It would've been helpful for me if I saw all 3 sentences at once. At the end I couldn't concentrate well because I was excited about ending the experiment (took too long and the sentences were all identical). Happy that I made it :),COMP,Graduated High School,1628637287982,277,female,7,bulgarian,Next,NA,NA,,238|159|262|199|206|198|183|166|182|207|168,Next,I | saw | less | than | ten | of | the | lollipops | in | the | drawer.,Wed Aug 11 2021 00:37:24 GMT+0200 (Mitteleuropäische Sommerzeit),1628635044366,37.3936,5633,fill_answer,24,filler-ov
2438,"Based on this, the judge concludes:|How justified is the judge in drawing that conclusion?",3967,24,Some of the sentences weren't understandable enough for me (answers like comparably low/high when the question wasn't about numbers). Sometimes I did forget the last sentence and couldn't really concentrate on the present one. It would've been helpful for me if I saw all 3 sentences at once. At the end I couldn't concentrate well because I was excited about ending the experiment (took too long and the sentences were all identical). Happy that I made it :),NA,Graduated High School,1628637287982,277,female,7,bulgarian,NA,not justifiable at all,strongly justifiable,The witness considers it possible that she saw nine of the lollipops in the drawer.,NA,5,NA,Wed Aug 11 2021 00:37:24 GMT+0200 (Mitteleuropäische Sommerzeit),1628635044366,37.3936,NA,fill_conclusion,24,filler-ov
2438,The judge asks:|The witness responds:,4173,24,Some of the sentences weren't understandable enough for me (answers like comparably low/high when the question wasn't about numbers). Sometimes I did forget the last sentence and couldn't really concentrate on the present one. It would've been helpful for me if I saw all 3 sentences at once. At the end I couldn't concentrate well because I was excited about ending the experiment (took too long and the sentences were all identical). Happy that I made it :),HOWMANY,Graduated High School,1628637287982,277,female,1,bulgarian,Next,NA,NA,How many of the coins did you find in the wallet?,NA,Next,NA,Wed Aug 11 2021 00:37:24 GMT+0200 (Mitteleuropäische Sommerzeit),1628635044366,37.3936,NA,question_view,13,main
2438,,NA,24,Some of the sentences weren't understandable enough for me (answers like comparably low/high when the question wasn't about numbers). Sometimes I did forget the last sentence and couldn't really concentrate on the present one. It would've been helpful for me if I saw all 3 sentences at once. At the end I couldn't concentrate well because I was excited about ending the experiment (took too long and the sentences were all identical). Happy that I made it :),COMP,Graduated High School,1628637287982,277,female,1,bulgarian,next,NA,NA,,190|191|189|143|206|175|174|174|167|182|168,next,I | found | less | than | ten | of | the | coins | in | the | wallet.,Wed Aug 11 2021 00:37:24 GMT+0200 (Mitteleuropäische Sommerzeit),1628635044366,37.3936,4832,answer_view,13,main
2438,"Based on this, the judge concludes:|How justified is the judge in drawing that conclusion?",5250,24,Some of the sentences weren't understandable enough for me (answers like comparably low/high when the question wasn't about numbers). Sometimes I did forget the last sentence and couldn't really concentrate on the present one. It would've been helpful for me if I saw all 3 sentences at once. At the end I couldn't concentrate well because I was excited about ending the experiment (took too long and the sentences were all identical). Happy that I made it :),NA,Graduated High School,1628637287982,277,female,1,bulgarian,NA,not justifiable at all,strongly justifiable,The witness doesn’t know exactly how many of the coins she found in the wallet.,NA,2,NA,Wed Aug 11 2021 00:37:24 GMT+0200 (Mitteleuropäische Sommerzeit),1628635044366,37.3936,NA,conclusion_view,13,main
2438,The judge asks:|The witness responds:,2442,24,Some of the sentences weren't understandable enough for me (answers like comparably low/high when the question wasn't about numbers). Sometimes I did forget the last sentence and couldn't really concentrate on the present one. It would've been helpful for me if I saw all 3 sentences at once. At the end I couldn't concentrate well because I was excited about ending the experiment (took too long and the sentences were all identical). Happy that I made it :),HOWMANY,Graduated High School,1628637287982,277,female,2,bulgarian,Next,NA,NA,How many of the pills did you find in the bag?,NA,Next,NA,Wed Aug 11 2021 00:37:24 GMT+0200 (Mitteleuropäische Sommerzeit),1628635044366,37.3936,NA,question_view,14,main
2438,,NA,24,Some of the sentences weren't understandable enough for me (answers like comparably low/high when the question wasn't about numbers). Sometimes I did forget the last sentence and couldn't really concentrate on the present one. It would've been helpful for me if I saw all 3 sentences at once. At the end I couldn't concentrate well because I was excited about ending the experiment (took too long and the sentences were all identical). Happy that I made it :),COMP,Graduated High School,1628637287982,277,female,2,bulgarian,next,NA,NA,,214|150|239|182|198|199|174|199|169|180|135,next, I | found | less | than | ten | of | the | pills | in  | the | bag.,Wed Aug 11 2021 00:37:24 GMT+0200 (Mitteleuropäische Sommerzeit),1628635044366,37.3936,5366,answer_view,14,main
2438,"Based on this, the judge concludes:|How justified is the judge in drawing that conclusion?",3098,24,Some of the sentences weren't understandable enough for me (answers like comparably low/high when the question wasn't about numbers). Sometimes I did forget the last sentence and couldn't really concentrate on the present one. It would've been helpful for me if I saw all 3 sentences at once. At the end I couldn't concentrate well because I was excited about ending the experiment (took too long and the sentences were all identical). Happy that I made it :),NA,Graduated High School,1628637287982,277,female,2,bulgarian,NA,not justifiable at all,strongly justifiable,The witness doesn’t know exactly how many of the pills she found in the bag.,NA,4,NA,Wed Aug 11 2021 00:37:24 GMT+0200 (Mitteleuropäische Sommerzeit),1628635044366,37.3936,NA,conclusion_view,14,main
2438,The judge asks:|The witness responds:,3687,24,Some of the sentences weren't understandable enough for me (answers like comparably low/high when the question wasn't about numbers). Sometimes I did forget the last sentence and couldn't really concentrate on the present one. It would've been helpful for me if I saw all 3 sentences at once. At the end I couldn't concentrate well because I was excited about ending the experiment (took too long and the sentences were all identical). Happy that I made it :),HOWMANY,Graduated High School,1628637287982,277,female,6,bulgarian,Next,NA,NA,How many of the shot glasses did you see on the kitchen counter?,NA,Next,NA,Wed Aug 11 2021 00:37:24 GMT+0200 (Mitteleuropäische Sommerzeit),1628635044366,37.3936,NA,question_view,15,main
2438,,NA,24,Some of the sentences weren't understandable enough for me (answers like comparably low/high when the question wasn't about numbers). Sometimes I did forget the last sentence and couldn't really concentrate on the present one. It would've been helpful for me if I saw all 3 sentences at once. At the end I couldn't concentrate well because I was excited about ending the experiment (took too long and the sentences were all identical). Happy that I made it :),COMP,Graduated High School,1628637287982,277,female,6,bulgarian,next,NA,NA,,270|207|157|199|142|238|183|190|158|175|182|166|176,next,I | found | less | than | ten | of | the | shot | glasses | on | the | kitchen | counter.,Wed Aug 11 2021 00:37:24 GMT+0200 (Mitteleuropäische Sommerzeit),1628635044366,37.3936,4845,answer_view,15,main
2438,"Based on this, the judge concludes:|How justified is the judge in drawing that conclusion?",6669,24,Some of the sentences weren't understandable enough for me (answers like comparably low/high when the question wasn't about numbers). Sometimes I did forget the last sentence and couldn't really concentrate on the present one. It would've been helpful for me if I saw all 3 sentences at once. At the end I couldn't concentrate well because I was excited about ending the experiment (took too long and the sentences were all identical). Happy that I made it :),NA,Graduated High School,1628637287982,277,female,6,bulgarian,NA,not justifiable at all,strongly justifiable,The witness doesn’t know exactly how many of the shot glasses she found on the kitchen counter.,NA,4,NA,Wed Aug 11 2021 00:37:24 GMT+0200 (Mitteleuropäische Sommerzeit),1628635044366,37.3936,NA,conclusion_view,15,main
2438,The judge asks:|The witness responds:,3736,24,Some of the sentences weren't understandable enough for me (answers like comparably low/high when the question wasn't about numbers). Sometimes I did forget the last sentence and couldn't really concentrate on the present one. It would've been helpful for me if I saw all 3 sentences at once. At the end I couldn't concentrate well because I was excited about ending the experiment (took too long and the sentences were all identical). Happy that I made it :),HOWMANY,Graduated High School,1628637287982,277,female,4,bulgarian,Next,NA,NA,How many of the robbers did you see in front of the bank?,NA,Next,NA,Wed Aug 11 2021 00:37:24 GMT+0200 (Mitteleuropäische Sommerzeit),1628635044366,37.3936,NA,question_view,16,main
2438,,NA,24,Some of the sentences weren't understandable enough for me (answers like comparably low/high when the question wasn't about numbers). Sometimes I did forget the last sentence and couldn't really concentrate on the present one. It would've been helpful for me if I saw all 3 sentences at once. At the end I couldn't concentrate well because I was excited about ending the experiment (took too long and the sentences were all identical). Happy that I made it :),COMP,Graduated High School,1628637287982,277,female,4,bulgarian,next,NA,NA,,221|352|183|182|166|183|166|174|174|175|182|182|168,next,I | saw | less | than | ten | of | the | robbers | in | front | of | the | bank.,Wed Aug 11 2021 00:37:24 GMT+0200 (Mitteleuropäische Sommerzeit),1628635044366,37.3936,5656,answer_view,16,main
2438,"Based on this, the judge concludes:|How justified is the judge in drawing that conclusion?",5080,24,Some of the sentences weren't understandable enough for me (answers like comparably low/high when the question wasn't about numbers). Sometimes I did forget the last sentence and couldn't really concentrate on the present one. It would've been helpful for me if I saw all 3 sentences at once. At the end I couldn't concentrate well because I was excited about ending the experiment (took too long and the sentences were all identical). Happy that I made it :),NA,Graduated High School,1628637287982,277,female,4,bulgarian,NA,not justifiable at all,strongly justifiable,The witness doesn’t know exactly how many of the robbers she saw in front of the bank.,NA,4,NA,Wed Aug 11 2021 00:37:24 GMT+0200 (Mitteleuropäische Sommerzeit),1628635044366,37.3936,NA,conclusion_view,16,main
2438,The judge asks:|The witness responds:,3820,24,Some of the sentences weren't understandable enough for me (answers like comparably low/high when the question wasn't about numbers). Sometimes I did forget the last sentence and couldn't really concentrate on the present one. It would've been helpful for me if I saw all 3 sentences at once. At the end I couldn't concentrate well because I was excited about ending the experiment (took too long and the sentences were all identical). Happy that I made it :),HOWMANY,Graduated High School,1628637287982,277,female,5,bulgarian,Next,NA,NA,How many of the bills did you see in the purse?,NA,Next,NA,Wed Aug 11 2021 00:37:24 GMT+0200 (Mitteleuropäische Sommerzeit),1628635044366,37.3936,NA,question_view,17,main
2438,,NA,24,Some of the sentences weren't understandable enough for me (answers like comparably low/high when the question wasn't about numbers). Sometimes I did forget the last sentence and couldn't really concentrate on the present one. It would've been helpful for me if I saw all 3 sentences at once. At the end I couldn't concentrate well because I was excited about ending the experiment (took too long and the sentences were all identical). Happy that I made it :),COMP,Graduated High School,1628637287982,277,female,5,bulgarian,next,NA,NA,,198|174|207|192|172|175|166|182|159|174|175,next,I | saw | less | than | ten | of | the | bills | in  | the | purse.,Wed Aug 11 2021 00:37:24 GMT+0200 (Mitteleuropäische Sommerzeit),1628635044366,37.3936,5667,answer_view,17,main
