submission_id,QUD,RT,age,comments,condition,education,endTime,experiment_id,gender,id,languages,option1,optionLeft,optionRight,question,reaction_times,response,sentence,startDate,startTime,timeSpent,time_spent,trial_name,trial_number,type
2778,The judge asks:|The witness responds:,36780,35,Nice to be ready ;),POLAR,Higher Degree,1629672760595,277,female,3,"German, Italian",Next,NA,NA,Did you hear at most ten of the shots coming from the school shooting?,NA,Next,NA,Sun Aug 22 2021 23:01:07 GMT+0200 (CEST),1629666067389,111.55343333333333,NA,question_view,1,main
2778,,NA,35,Nice to be ready ;),SUP,Higher Degree,1629672760595,277,female,3,"German, Italian",next,NA,NA,,954|2196|618|574|529|810|450|428|495|483|439|518|698,next,I | heard | at | most | ten | of | the | shots | coming | from | the | school | shooting.,Sun Aug 22 2021 23:01:07 GMT+0200 (CEST),1629666067389,111.55343333333333,43405,answer_view,1,main
2778,"Based on this, the judge concludes:|How justified is the judge in drawing that conclusion?",37283,35,Nice to be ready ;),NA,Higher Degree,1629672760595,277,female,3,"German, Italian",NA,not justifiable at all,strongly justifiable,The witness doesn’t know exactly how many of the shots she heard coming from the school shooting.,NA,1,NA,Sun Aug 22 2021 23:01:07 GMT+0200 (CEST),1629666067389,111.55343333333333,NA,conclusion_view,1,main
2778,The judge asks:|The witness responds:,11926,35,Nice to be ready ;),POLAR,Higher Degree,1629672760595,277,female,5,"German, Italian",Next,NA,NA,Did you see at most ten of the bills in the purse?,NA,Next,NA,Sun Aug 22 2021 23:01:07 GMT+0200 (CEST),1629666067389,111.55343333333333,NA,question_view,2,main
2778,,NA,35,Nice to be ready ;),SUP,Higher Degree,1629672760595,277,female,5,"German, Italian",next,NA,NA,,618|608|483|1239|1383|630|1879|1091|529|394|428,next,I | saw | at | most | ten | of | the | bills | in | the | purse.,Sun Aug 22 2021 23:01:07 GMT+0200 (CEST),1629666067389,111.55343333333333,13387,answer_view,2,main
2778,"Based on this, the judge concludes:|How justified is the judge in drawing that conclusion?",15525,35,Nice to be ready ;),NA,Higher Degree,1629672760595,277,female,5,"German, Italian",NA,not justifiable at all,strongly justifiable,The witness doesn’t know exactly how many of the bills she saw in the purse.,NA,1,NA,Sun Aug 22 2021 23:01:07 GMT+0200 (CEST),1629666067389,111.55343333333333,NA,conclusion_view,2,main
2778,The judge asks:|The witness responds:,12264,35,Nice to be ready ;),POLAR,Higher Degree,1629672760595,277,female,4,"German, Italian",Next,NA,NA,Did you see at most ten of the robbers in front of the bank?,NA,Next,NA,Sun Aug 22 2021 23:01:07 GMT+0200 (CEST),1629666067389,111.55343333333333,NA,question_view,3,main
2778,,NA,35,Nice to be ready ;),SUP,Higher Degree,1629672760595,277,female,4,"German, Italian",next,NA,NA,,551|765|450|439|776|518|371|450|518|528|799|484|900,next,I | saw | at | most | ten | of | the | robbers | in | front | of | the | bank.,Sun Aug 22 2021 23:01:07 GMT+0200 (CEST),1629666067389,111.55343333333333,10979,answer_view,3,main
2778,"Based on this, the judge concludes:|How justified is the judge in drawing that conclusion?",37656,35,Nice to be ready ;),NA,Higher Degree,1629672760595,277,female,4,"German, Italian",NA,not justifiable at all,strongly justifiable,The witness doesn’t know exactly how many of the robbers she saw in front of the bank.,NA,2,NA,Sun Aug 22 2021 23:01:07 GMT+0200 (CEST),1629666067389,111.55343333333333,NA,conclusion_view,3,main
2778,The judge asks:|The witness responds:,12126,35,Nice to be ready ;),POLAR,Higher Degree,1629672760595,277,female,2,"German, Italian",Next,NA,NA,Did you find at most ten of the pills in the bag?,NA,Next,NA,Sun Aug 22 2021 23:01:07 GMT+0200 (CEST),1629666067389,111.55343333333333,NA,question_view,4,main
2778,,NA,35,Nice to be ready ;),SUP,Higher Degree,1629672760595,277,female,2,"German, Italian",next,NA,NA,,461|450|484|528|541|461|439|551|427|732|529,next,I | found | at | most | ten | of | the | pills | in  | the | bag.,Sun Aug 22 2021 23:01:07 GMT+0200 (CEST),1629666067389,111.55343333333333,9664,answer_view,4,main
2778,"Based on this, the judge concludes:|How justified is the judge in drawing that conclusion?",12759,35,Nice to be ready ;),NA,Higher Degree,1629672760595,277,female,2,"German, Italian",NA,not justifiable at all,strongly justifiable,The witness doesn’t know exactly how many of the pills she found in the bag.,NA,2,NA,Sun Aug 22 2021 23:01:07 GMT+0200 (CEST),1629666067389,111.55343333333333,NA,conclusion_view,4,main
2778,The judge asks:|The witness responds:,13972,35,Nice to be ready ;),POLAR,Higher Degree,1629672760595,277,female,1,"German, Italian",Next,NA,NA,Did you find at most ten of the coins in the wallet?,NA,Next,NA,Sun Aug 22 2021 23:01:07 GMT+0200 (CEST),1629666067389,111.55343333333333,NA,question_view,5,main
2778,,NA,35,Nice to be ready ;),SUP,Higher Degree,1629672760595,277,female,1,"German, Italian",next,NA,NA,,439|416|405|371|416|462|416|427|473|439|585,next,I | found | at | most | ten | of | the | coins | in | the | wallet.,Sun Aug 22 2021 23:01:07 GMT+0200 (CEST),1629666067389,111.55343333333333,9023,answer_view,5,main
2778,"Based on this, the judge concludes:|How justified is the judge in drawing that conclusion?",7901,35,Nice to be ready ;),NA,Higher Degree,1629672760595,277,female,1,"German, Italian",NA,not justifiable at all,strongly justifiable,The witness doesn’t know exactly how many of the coins she found in the wallet.,NA,2,NA,Sun Aug 22 2021 23:01:07 GMT+0200 (CEST),1629666067389,111.55343333333333,NA,conclusion_view,5,main
2778,The judge asks:|The witness responds:,181770,35,Nice to be ready ;),POLAR,Higher Degree,1629672760595,277,female,6,"German, Italian",Next,NA,NA,Did you find at most ten of the shot glasses on the kitchen counter?,NA,Next,NA,Sun Aug 22 2021 23:01:07 GMT+0200 (CEST),1629666067389,111.55343333333333,NA,question_view,6,main
2778,,NA,35,Nice to be ready ;),SUP,Higher Degree,1629672760595,277,female,6,"German, Italian",next,NA,NA,,538|439|450|473|483|507|483|529|585|473|428|539|642,next,I | found | at | most | ten | of | the | shot | glasses | on | the | kitchen | counter. ,Sun Aug 22 2021 23:01:07 GMT+0200 (CEST),1629666067389,111.55343333333333,24152,answer_view,6,main
2778,"Based on this, the judge concludes:|How justified is the judge in drawing that conclusion?",25921,35,Nice to be ready ;),NA,Higher Degree,1629672760595,277,female,6,"German, Italian",NA,not justifiable at all,strongly justifiable,The witness doesn’t know exactly how many of the shot glasses she found on the kitchen counter.,NA,1,NA,Sun Aug 22 2021 23:01:07 GMT+0200 (CEST),1629666067389,111.55343333333333,NA,conclusion_view,6,main
2778,The judge asks:|The witness responds:,7851,35,Nice to be ready ;),HOWMANY,Higher Degree,1629672760595,277,female,6,"German, Italian",Next,NA,NA,How many animals did you see roaming in the forest?,NA,Next,NA,Sun Aug 22 2021 23:01:07 GMT+0200 (CEST),1629666067389,111.55343333333333,NA,fill_question,1,filler-ov
2778,,NA,35,Nice to be ready ;),COMP,Higher Degree,1629672760595,277,female,6,"German, Italian",Next,NA,NA,,484|484|551|686|541|1057|585|540|810|405|1542,Next,I | only | saw | less | than | ten | animals | roaming | in | the | forest.,Sun Aug 22 2021 23:01:07 GMT+0200 (CEST),1629666067389,111.55343333333333,11947,fill_answer,1,filler-ov
2778,"Based on this, the judge concludes:|How justified is the judge in drawing that conclusion?",10936,35,Nice to be ready ;),NA,Higher Degree,1629672760595,277,female,6,"German, Italian",NA,not justifiable at all,strongly justifiable,The witness considers it possible that she saw nine animals roaming in the forest.,NA,5,NA,Sun Aug 22 2021 23:01:07 GMT+0200 (CEST),1629666067389,111.55343333333333,NA,fill_conclusion,1,filler-ov
2778,The judge asks:|The witness responds:,10541,35,Nice to be ready ;),WHAT,Higher Degree,1629672760595,277,female,8,"German, Italian",Next,NA,NA,What did you certainly find in the locker?,NA,Next,NA,Sun Aug 22 2021 23:01:07 GMT+0200 (CEST),1629666067389,111.55343333333333,NA,fill_question,2,filler-ov
2778,,NA,35,Nice to be ready ;),SUP,Higher Degree,1629672760595,277,female,8,"German, Italian",Next,NA,NA,,405|371|551|484|630|472|721|506|450|416|596|721|1036,Next,I | only | found | at | most | ten | pictures | of | the | assault | in | the | locker.,Sun Aug 22 2021 23:01:07 GMT+0200 (CEST),1629666067389,111.55343333333333,10991,fill_answer,2,filler-ov
2778,"Based on this, the judge concludes:|How justified is the judge in drawing that conclusion?",43359,35,Nice to be ready ;),NA,Higher Degree,1629672760595,277,female,8,"German, Italian",NA,not justifiable at all,strongly justifiable,The witness considers it possible that she saw nine pictures of the assault in the locker.,NA,2,NA,Sun Aug 22 2021 23:01:07 GMT+0200 (CEST),1629666067389,111.55343333333333,NA,fill_conclusion,2,filler-ov
2778,The judge asks:|The witness responds:,10304,35,Nice to be ready ;),HOWMANY,Higher Degree,1629672760595,277,female,8,"German, Italian",Next,NA,NA,How many pictures of the assault did you find in the locker?,NA,Next,NA,Sun Aug 22 2021 23:01:07 GMT+0200 (CEST),1629666067389,111.55343333333333,NA,fill_question,3,filler-oi
2778,,NA,35,Nice to be ready ;),COMP,Higher Degree,1629672760595,277,female,8,"German, Italian",Next,NA,NA,,439|449|540|473|495|529|427|506|439|416|439|709,Next,I | found | only | less | than | ten | pictures | of the | assault | in | the | locker.,Sun Aug 22 2021 23:01:07 GMT+0200 (CEST),1629666067389,111.55343333333333,9393,fill_answer,3,filler-oi
2778,"Based on this, the judge concludes:|How justified is the judge in drawing that conclusion?",8899,35,Nice to be ready ;),NA,Higher Degree,1629672760595,277,female,8,"German, Italian",NA,not justifiable at all,strongly justifiable,The witness considers it possible that she saw eleven pictures of the assault in the locker.,NA,1,NA,Sun Aug 22 2021 23:01:07 GMT+0200 (CEST),1629666067389,111.55343333333333,NA,fill_conclusion,3,filler-oi
2778,The judge asks:|The witness responds:,10585,35,Nice to be ready ;),POLAR,Higher Degree,1629672760595,277,female,2,"German, Italian",Next,NA,NA,Did you see at most ten of the balloons flying in the air?,NA,Next,NA,Sun Aug 22 2021 23:01:07 GMT+0200 (CEST),1629666067389,111.55343333333333,NA,fill_question,4,filler-plau
2778,,NA,35,Nice to be ready ;),SUP,Higher Degree,1629672760595,277,female,2,"German, Italian",Next,NA,NA,,405|472|507|472|450|428|540|483|372|427|394|360|428,Next,I | saw | only | at | most | ten | of | the | balloons | flying | in | the | air.,Sun Aug 22 2021 23:01:07 GMT+0200 (CEST),1629666067389,111.55343333333333,8764,fill_answer,4,filler-plau
2778,"Based on this, the judge concludes:|How justified is the judge in drawing that conclusion?",7144,35,Nice to be ready ;),NA,Higher Degree,1629672760595,277,female,2,"German, Italian",NA,not justifiable at all,strongly justifiable,The witness thinks the number of the balloons she saw in the air is comparably low.,NA,3,NA,Sun Aug 22 2021 23:01:07 GMT+0200 (CEST),1629666067389,111.55343333333333,NA,fill_conclusion,4,filler-plau
2778,The judge asks:|The witness responds:,24592,35,Nice to be ready ;),HOWMANY,Higher Degree,1629672760595,277,female,9,"German, Italian",Next,NA,NA,How many drug addicts did you approximately see at the party?,NA,Next,NA,Sun Aug 22 2021 23:01:07 GMT+0200 (CEST),1629666067389,111.55343333333333,NA,fill_question,5,filler-implau
2778,,NA,35,Nice to be ready ;),SUP,Higher Degree,1629672760595,277,female,9,"German, Italian",Next,NA,NA,,348|427|485|449|462|956|427|462|337|529,Next,I | saw | at | most | ten | drug | addicts | at | the | party.,Sun Aug 22 2021 23:01:07 GMT+0200 (CEST),1629666067389,111.55343333333333,9349,fill_answer,5,filler-plau
2778,"Based on this, the judge concludes:|How justified is the judge in drawing that conclusion?",12264,35,Nice to be ready ;),NA,Higher Degree,1629672760595,277,female,9,"German, Italian",NA,not justifiable at all,strongly justifiable,The witness thinks the number of drug addicts she saw at the party is comparably high.,NA,4,NA,Sun Aug 22 2021 23:01:07 GMT+0200 (CEST),1629666067389,111.55343333333333,NA,fill_conclusion,5,filler-implau
2778,The judge asks:|The witness responds:,14871,35,Nice to be ready ;),WHAT,Higher Degree,1629672760595,277,female,5,"German, Italian",Next,NA,NA,What did you approximately hear at this event?,NA,Next,NA,Sun Aug 22 2021 23:01:07 GMT+0200 (CEST),1629666067389,111.55343333333333,NA,fill_question,6,filler-plau
2778,,NA,35,Nice to be ready ;),SUP,Higher Degree,1629672760595,277,female,5,"German, Italian",Next,NA,NA,,416|394|495|461|427|473|506|418|483|708,Next,I | heard | at | most | ten | women | shouting | at | this | event.,Sun Aug 22 2021 23:01:07 GMT+0200 (CEST),1629666067389,111.55343333333333,7739,fill_answer,6,filler-plau
2778,"Based on this, the judge concludes:|How justified is the judge in drawing that conclusion?",23468,35,Nice to be ready ;),NA,Higher Degree,1629672760595,277,female,5,"German, Italian",NA,not justifiable at all,strongly justifiable,The witness thinks the number of women she heard shouting at this event is comparably low.,NA,3,NA,Sun Aug 22 2021 23:01:07 GMT+0200 (CEST),1629666067389,111.55343333333333,NA,fill_conclusion,6,filler-plau
2778,The judge asks:|The witness responds:,11710,35,Nice to be ready ;),WHAT,Higher Degree,1629672760595,277,female,4,"German, Italian",Next,NA,NA,What did you find while trying to escape the fire?,NA,Next,NA,Sun Aug 22 2021 23:01:07 GMT+0200 (CEST),1629666067389,111.55343333333333,NA,fill_question,7,filler-implau
2778,,NA,35,Nice to be ready ;),COMP,Higher Degree,1629672760595,277,female,4,"German, Italian",Next,NA,NA,,495|427|394|495|484|1294|708|754|619|484|764|1025,Next,I | found | less | than | ten | children | while | trying | to | escape | the | fire.,Sun Aug 22 2021 23:01:07 GMT+0200 (CEST),1629666067389,111.55343333333333,11273,fill_answer,7,filler-implau
2778,"Based on this, the judge concludes:|How justified is the judge in drawing that conclusion?",14827,35,Nice to be ready ;),NA,Higher Degree,1629672760595,277,female,4,"German, Italian",NA,not justifiable at all,strongly justifiable,The witness thinks the number of children she found trying to escape the fire is comparably high.,NA,2,NA,Sun Aug 22 2021 23:01:07 GMT+0200 (CEST),1629666067389,111.55343333333333,NA,fill_conclusion,7,filler-implau
2778,The judge asks:|The witness responds:,7234,35,Nice to be ready ;),HOWMANY,Higher Degree,1629672760595,277,female,5,"German, Italian",Next,NA,NA,How many women did you approximately hear shouting at this event?,NA,Next,NA,Sun Aug 22 2021 23:01:07 GMT+0200 (CEST),1629666067389,111.55343333333333,NA,fill_question,8,filler-plau
2778,,NA,35,Nice to be ready ;),COMP,Higher Degree,1629672760595,277,female,5,"German, Italian",Next,NA,NA,,540|371|349|483|574|450|360|416|372|697,Next,I | heard | less | than | ten | women | shouting | at | this | event.,Sun Aug 22 2021 23:01:07 GMT+0200 (CEST),1629666067389,111.55343333333333,7851,fill_answer,8,filler-plau
2778,"Based on this, the judge concludes:|How justified is the judge in drawing that conclusion?",8426,35,Nice to be ready ;),NA,Higher Degree,1629672760595,277,female,5,"German, Italian",NA,not justifiable at all,strongly justifiable,The witness thinks the number of women she heard shouting at this event is comparably low.,NA,5,NA,Sun Aug 22 2021 23:01:07 GMT+0200 (CEST),1629666067389,111.55343333333333,NA,fill_conclusion,8,filler-plau
2778,The judge asks:|The witness responds:,47465,35,Nice to be ready ;),POLAR,Higher Degree,1629672760595,277,female,1,"German, Italian",Next,NA,NA,Did you approximately see less than ten of the bread slices on the kitchen counter?,NA,Next,NA,Sun Aug 22 2021 23:01:07 GMT+0200 (CEST),1629666067389,111.55343333333333,NA,fill_question,9,filler-ov
2778,,NA,35,Nice to be ready ;),COMP,Higher Degree,1629672760595,277,female,1,"German, Italian",Next,NA,NA,,472|383|484|427|382|339|359|394|394|405|404|440|483,Next,I | saw | less | than | ten | of | the | bread | slices | on | the | kitchen | counter.,Sun Aug 22 2021 23:01:07 GMT+0200 (CEST),1629666067389,111.55343333333333,8785,fill_answer,9,filler-ov
2778,"Based on this, the judge concludes:|How justified is the judge in drawing that conclusion?",9596,35,Nice to be ready ;),NA,Higher Degree,1629672760595,277,female,1,"German, Italian",NA,not justifiable at all,strongly justifiable,The witness considers it possible that she saw nine of the bread slices on the kitchen counter.,NA,4,NA,Sun Aug 22 2021 23:01:07 GMT+0200 (CEST),1629666067389,111.55343333333333,NA,fill_conclusion,9,filler-ov
2778,The judge asks:|The witness responds:,5975,35,Nice to be ready ;),HOWMANY,Higher Degree,1629672760595,277,female,9,"German, Italian",Next,NA,NA,How many drug addicts did you probably see at the party?,NA,Next,NA,Sun Aug 22 2021 23:01:07 GMT+0200 (CEST),1629666067389,111.55343333333333,NA,fill_question,10,filler-implau
2778,,NA,35,Nice to be ready ;),COMP,Higher Degree,1629672760595,277,female,9,"German, Italian",Next,NA,NA,,428|315|326|371|394|304|360|405|292|462,Next,I | saw | less | than | ten | drug | addicts | at | the | party.,Sun Aug 22 2021 23:01:07 GMT+0200 (CEST),1629666067389,111.55343333333333,7074,fill_answer,10,filler-implau
2778,"Based on this, the judge concludes:|How justified is the judge in drawing that conclusion?",6547,35,Nice to be ready ;),NA,Higher Degree,1629672760595,277,female,9,"German, Italian",NA,not justifiable at all,strongly justifiable,The witness thinks the number of drug addicts she saw at the party is comparably high.,NA,3,NA,Sun Aug 22 2021 23:01:07 GMT+0200 (CEST),1629666067389,111.55343333333333,NA,fill_conclusion,10,filler-implau
2778,The judge asks:|The witness responds:,13085,35,Nice to be ready ;),HOWMANY,Higher Degree,1629672760595,277,female,3,"German, Italian",Next,NA,NA,How many corpses did you certainly find in the office?,NA,Next,NA,Sun Aug 22 2021 23:01:07 GMT+0200 (CEST),1629666067389,111.55343333333333,NA,fill_question,11,filler-oi
2778,,NA,35,Nice to be ready ;),COMP,Higher Degree,1629672760595,277,female,3,"German, Italian",Next,NA,NA,,450|349|394|337|326|293|383|326|540,Next,I | found | less | than | ten | corpses | in | the | office.,Sun Aug 22 2021 23:01:07 GMT+0200 (CEST),1629666067389,111.55343333333333,6052,fill_answer,11,filler-oi
2778,"Based on this, the judge concludes:|How justified is the judge in drawing that conclusion?",7595,35,Nice to be ready ;),NA,Higher Degree,1629672760595,277,female,3,"German, Italian",NA,not justifiable at all,strongly justifiable,The witness considers it possible that she saw eleven corpses at the office.,NA,1,NA,Sun Aug 22 2021 23:01:07 GMT+0200 (CEST),1629666067389,111.55343333333333,NA,fill_conclusion,11,filler-oi
2778,The judge asks:|The witness responds:,66702,35,Nice to be ready ;),POLAR,Higher Degree,1629672760595,277,female,1,"German, Italian",Next,NA,NA,Did you see at most ten of the bread slices on the kitchen counter?,NA,Next,NA,Sun Aug 22 2021 23:01:07 GMT+0200 (CEST),1629666067389,111.55343333333333,NA,fill_question,12,filler-oi
2778,,NA,35,Nice to be ready ;),SUP,Higher Degree,1629672760595,277,female,1,"German, Italian",Next,NA,NA,,381|395|405|393|405|372|326|281|315|316|292|371|867,Next,I | saw | at | most | ten | of | the | bread | slices | on | the | kitchen | counter.,Sun Aug 22 2021 23:01:07 GMT+0200 (CEST),1629666067389,111.55343333333333,8696,fill_answer,12,filler-oi
2778,"Based on this, the judge concludes:|How justified is the judge in drawing that conclusion?",13421,35,Nice to be ready ;),NA,Higher Degree,1629672760595,277,female,1,"German, Italian",NA,not justifiable at all,strongly justifiable,The witness considers it possible that she saw ten of the bread slices on the kitchen counter.,NA,3,NA,Sun Aug 22 2021 23:01:07 GMT+0200 (CEST),1629666067389,111.55343333333333,NA,fill_conclusion,12,filler-oi
2778,The judge asks:|The witness responds:,48523,35,Nice to be ready ;),HOWMANY,Higher Degree,1629672760595,277,female,4,"German, Italian",Next,NA,NA,How many of the robbers did you see in front of the bank?,NA,Next,NA,Sun Aug 22 2021 23:01:07 GMT+0200 (CEST),1629666067389,111.55343333333333,NA,question_view,7,main
2778,,NA,35,Nice to be ready ;),SUP,Higher Degree,1629672760595,277,female,4,"German, Italian",next,NA,NA,,473|405|360|416|383|439|359|384|348|315|304|281|563,next,I | saw | at | most | ten | of | the | robbers | in | front | of | the | bank.,Sun Aug 22 2021 23:01:07 GMT+0200 (CEST),1629666067389,111.55343333333333,10394,answer_view,7,main
2778,"Based on this, the judge concludes:|How justified is the judge in drawing that conclusion?",18789,35,Nice to be ready ;),NA,Higher Degree,1629672760595,277,female,4,"German, Italian",NA,not justifiable at all,strongly justifiable,The witness doesn’t know exactly how many of the robbers she saw in front of the bank.,NA,2,NA,Sun Aug 22 2021 23:01:07 GMT+0200 (CEST),1629666067389,111.55343333333333,NA,conclusion_view,7,main
2778,The judge asks:|The witness responds:,11350,35,Nice to be ready ;),HOWMANY,Higher Degree,1629672760595,277,female,3,"German, Italian",Next,NA,NA,How many of the shots did you hear coming from the school shooting?,NA,Next,NA,Sun Aug 22 2021 23:01:07 GMT+0200 (CEST),1629666067389,111.55343333333333,NA,question_view,8,main
2778,,NA,35,Nice to be ready ;),SUP,Higher Degree,1629672760595,277,female,3,"German, Italian",next,NA,NA,,584|360|417|371|337|360|338|259|258|315|282|348|1160,next,I | heard | at | most | ten | of | the | shots | coming | from | the | school | shooting.,Sun Aug 22 2021 23:01:07 GMT+0200 (CEST),1629666067389,111.55343333333333,9653,answer_view,8,main
2778,"Based on this, the judge concludes:|How justified is the judge in drawing that conclusion?",9517,35,Nice to be ready ;),NA,Higher Degree,1629672760595,277,female,3,"German, Italian",NA,not justifiable at all,strongly justifiable,The witness doesn’t know exactly how many of the shots she heard coming from the school shooting.,NA,2,NA,Sun Aug 22 2021 23:01:07 GMT+0200 (CEST),1629666067389,111.55343333333333,NA,conclusion_view,8,main
2778,The judge asks:|The witness responds:,396484,35,Nice to be ready ;),HOWMANY,Higher Degree,1629672760595,277,female,1,"German, Italian",Next,NA,NA,How many of the coins did you find in the wallet?,NA,Next,NA,Sun Aug 22 2021 23:01:07 GMT+0200 (CEST),1629666067389,111.55343333333333,NA,question_view,9,main
2778,,NA,35,Nice to be ready ;),SUP,Higher Degree,1629672760595,277,female,1,"German, Italian",next,NA,NA,,483|439|450|438|383|382|765|282|438|372|439,next,I | found | at | most | ten | of | the | coins | in | the | wallet.,Sun Aug 22 2021 23:01:07 GMT+0200 (CEST),1629666067389,111.55343333333333,7997,answer_view,9,main
2778,"Based on this, the judge concludes:|How justified is the judge in drawing that conclusion?",9044,35,Nice to be ready ;),NA,Higher Degree,1629672760595,277,female,1,"German, Italian",NA,not justifiable at all,strongly justifiable,The witness doesn’t know exactly how many of the coins she found in the wallet.,NA,4,NA,Sun Aug 22 2021 23:01:07 GMT+0200 (CEST),1629666067389,111.55343333333333,NA,conclusion_view,9,main
2778,The judge asks:|The witness responds:,10091,35,Nice to be ready ;),HOWMANY,Higher Degree,1629672760595,277,female,5,"German, Italian",Next,NA,NA,How many of the bills did you see in the purse?,NA,Next,NA,Sun Aug 22 2021 23:01:07 GMT+0200 (CEST),1629666067389,111.55343333333333,NA,question_view,10,main
2778,,NA,35,Nice to be ready ;),SUP,Higher Degree,1629672760595,277,female,5,"German, Italian",next,NA,NA,,404|282|405|417|371|325|259|226|247|225|450,next,I | saw | at | most | ten | of | the | bills | in | the | purse.,Sun Aug 22 2021 23:01:07 GMT+0200 (CEST),1629666067389,111.55343333333333,6694,answer_view,10,main
2778,"Based on this, the judge concludes:|How justified is the judge in drawing that conclusion?",9810,35,Nice to be ready ;),NA,Higher Degree,1629672760595,277,female,5,"German, Italian",NA,not justifiable at all,strongly justifiable,The witness doesn’t know exactly how many of the bills she saw in the purse.,NA,3,NA,Sun Aug 22 2021 23:01:07 GMT+0200 (CEST),1629666067389,111.55343333333333,NA,conclusion_view,10,main
2778,The judge asks:|The witness responds:,9653,35,Nice to be ready ;),HOWMANY,Higher Degree,1629672760595,277,female,6,"German, Italian",Next,NA,NA,How many of the shot glasses did you find on the kitchen counter?,NA,Next,NA,Sun Aug 22 2021 23:01:07 GMT+0200 (CEST),1629666067389,111.55343333333333,NA,question_view,11,main
2778,,NA,35,Nice to be ready ;),SUP,Higher Degree,1629672760595,277,female,6,"German, Italian",next,NA,NA,,281|269|327|315|304|269|270|270|293|361|337|258|361,next,I | saw | at | most | ten | of | the | shot | glasses | on | the | kitchen | counter.,Sun Aug 22 2021 23:01:07 GMT+0200 (CEST),1629666067389,111.55343333333333,7143,answer_view,11,main
2778,"Based on this, the judge concludes:|How justified is the judge in drawing that conclusion?",11576,35,Nice to be ready ;),NA,Higher Degree,1629672760595,277,female,6,"German, Italian",NA,not justifiable at all,strongly justifiable,The witness doesn’t know exactly how many of the shot glasses she saw on the kitchen counter.,NA,3,NA,Sun Aug 22 2021 23:01:07 GMT+0200 (CEST),1629666067389,111.55343333333333,NA,conclusion_view,11,main
2778,The judge asks:|The witness responds:,6694,35,Nice to be ready ;),HOWMANY,Higher Degree,1629672760595,277,female,2,"German, Italian",Next,NA,NA,How many of the pills did you find in the bag?,NA,Next,NA,Sun Aug 22 2021 23:01:07 GMT+0200 (CEST),1629666067389,111.55343333333333,NA,question_view,12,main
2778,,NA,35,Nice to be ready ;),SUP,Higher Degree,1629672760595,277,female,2,"German, Italian",next,NA,NA,,337|315|338|405|393|338|315|281|293|292|417,next,I | found | at | most | ten | of | the | pills | in  | the | bag.,Sun Aug 22 2021 23:01:07 GMT+0200 (CEST),1629666067389,111.55343333333333,7796,answer_view,12,main
2778,"Based on this, the judge concludes:|How justified is the judge in drawing that conclusion?",5716,35,Nice to be ready ;),NA,Higher Degree,1629672760595,277,female,2,"German, Italian",NA,not justifiable at all,strongly justifiable,The witness doesn’t know exactly how many of the pills she found in the bag.,NA,3,NA,Sun Aug 22 2021 23:01:07 GMT+0200 (CEST),1629666067389,111.55343333333333,NA,conclusion_view,12,main
2778,The judge asks:|The witness responds:,5758,35,Nice to be ready ;),HOWMANY,Higher Degree,1629672760595,277,female,6,"German, Italian",Next,NA,NA,How many animals did you approximately see roaming in the forest?,NA,Next,NA,Sun Aug 22 2021 23:01:07 GMT+0200 (CEST),1629666067389,111.55343333333333,NA,fill_question,13,filler-oi
2778,,NA,35,Nice to be ready ;),SUP,Higher Degree,1629672760595,277,female,6,"German, Italian",Next,NA,NA,,438|361|371|405|450|371|1226|383|326|371,Next,I | saw | at | most | ten | animals | roamin | in | the | forest.,Sun Aug 22 2021 23:01:07 GMT+0200 (CEST),1629666067389,111.55343333333333,7841,fill_answer,13,filler-oi
2778,"Based on this, the judge concludes:|How justified is the judge in drawing that conclusion?",11002,35,Nice to be ready ;),NA,Higher Degree,1629672760595,277,female,6,"German, Italian",NA,not justifiable at all,strongly justifiable,The witness considers it possible that she saw eleven animals roaming in the forest.,NA,3,NA,Sun Aug 22 2021 23:01:07 GMT+0200 (CEST),1629666067389,111.55343333333333,NA,fill_conclusion,13,filler-oi
2778,The judge asks:|The witness responds:,16224,35,Nice to be ready ;),DID,Higher Degree,1629672760595,277,female,3,"German, Italian",Next,NA,NA,Did you find only ten corpses in the office?,NA,Next,NA,Sun Aug 22 2021 23:01:07 GMT+0200 (CEST),1629666067389,111.55343333333333,NA,fill_question,14,filler-ov
2778,,NA,35,Nice to be ready ;),COMP,Higher Degree,1629672760595,277,female,3,"German, Italian",Next,NA,NA,,438|461|439|619|427|642|405|360|382,Next,I | found | less | than | ten | corpses | in | the | office.,Sun Aug 22 2021 23:01:07 GMT+0200 (CEST),1629666067389,111.55343333333333,6535,fill_answer,14,filler-ov
2778,"Based on this, the judge concludes:|How justified is the judge in drawing that conclusion?",6255,35,Nice to be ready ;),NA,Higher Degree,1629672760595,277,female,3,"German, Italian",NA,not justifiable at all,strongly justifiable,The witness considers it possible that she saw nine corpses at the office.,NA,1,NA,Sun Aug 22 2021 23:01:07 GMT+0200 (CEST),1629666067389,111.55343333333333,NA,fill_conclusion,14,filler-ov
2778,The judge asks:|The witness responds:,8955,35,Nice to be ready ;),WHAT,Higher Degree,1629672760595,277,female,3,"German, Italian",Next,NA,NA,What did you certainly find in the office?,NA,Next,NA,Sun Aug 22 2021 23:01:07 GMT+0200 (CEST),1629666067389,111.55343333333333,NA,fill_question,15,filler-oi
2778,,NA,35,Nice to be ready ;),COMP,Higher Degree,1629672760595,277,female,3,"German, Italian",Next,NA,NA,,450|315|461|956|630|912|1068|473|810,Next,I | found | less | than | ten | corpses | in | the | office.,Sun Aug 22 2021 23:01:07 GMT+0200 (CEST),1629666067389,111.55343333333333,9798,fill_answer,15,filler-oi
2778,"Based on this, the judge concludes:|How justified is the judge in drawing that conclusion?",9653,35,Nice to be ready ;),NA,Higher Degree,1629672760595,277,female,3,"German, Italian",NA,not justifiable at all,strongly justifiable,The witness considers it possible that she saw ten corpses at the office.,NA,2,NA,Sun Aug 22 2021 23:01:07 GMT+0200 (CEST),1629666067389,111.55343333333333,NA,fill_conclusion,15,filler-oi
2778,The judge asks:|The witness responds:,21115,35,Nice to be ready ;),DID,Higher Degree,1629672760595,277,female,8,"German, Italian",Next,NA,NA,Did you see only ten pictures of the assault in the locker?,NA,Next,NA,Sun Aug 22 2021 23:01:07 GMT+0200 (CEST),1629666067389,111.55343333333333,NA,fill_question,16,filler-plau
2778,,NA,35,Nice to be ready ;),SUP,Higher Degree,1629672760595,277,female,8,"German, Italian",Next,NA,NA,,483|495|405|405|394|619|776|461|450|428|337|462,Next,I | saw | at | most | ten | pictures | of | the | assault | in | the | locker.,Sun Aug 22 2021 23:01:07 GMT+0200 (CEST),1629666067389,111.55343333333333,8763,fill_answer,16,filler-plau
2778,"Based on this, the judge concludes:|How justified is the judge in drawing that conclusion?",8708,35,Nice to be ready ;),NA,Higher Degree,1629672760595,277,female,8,"German, Italian",NA,not justifiable at all,strongly justifiable,The witness thinks the number of pictures she saw in the locker is comparably low.,NA,1,NA,Sun Aug 22 2021 23:01:07 GMT+0200 (CEST),1629666067389,111.55343333333333,NA,fill_conclusion,16,filler-plau
2778,The judge asks:|The witness responds:,4476,35,Nice to be ready ;),WHAT,Higher Degree,1629672760595,277,female,6,"German, Italian",Next,NA,NA,What did you hear in the forest?,NA,Next,NA,Sun Aug 22 2021 23:01:07 GMT+0200 (CEST),1629666067389,111.55343333333333,NA,fill_question,17,filler-ov
2778,,NA,35,Nice to be ready ;),COMP,Higher Degree,1629672760595,277,female,6,"German, Italian",Next,NA,NA,,372|348|417|449|428|416|507|450|540|405|652,Next,I | only | heard | less | than | ten | animals | howling | in | the | forest.,Sun Aug 22 2021 23:01:07 GMT+0200 (CEST),1629666067389,111.55343333333333,8077,fill_answer,17,filler-ov
2778,"Based on this, the judge concludes:|How justified is the judge in drawing that conclusion?",10136,35,Nice to be ready ;),NA,Higher Degree,1629672760595,277,female,6,"German, Italian",NA,not justifiable at all,strongly justifiable,The witness considers it possible that she heard nine animals howling in the forest.,NA,4,NA,Sun Aug 22 2021 23:01:07 GMT+0200 (CEST),1629666067389,111.55343333333333,NA,fill_conclusion,17,filler-ov
2778,The judge asks:|The witness responds:,55925,35,Nice to be ready ;),POLAR,Higher Degree,1629672760595,277,female,2,"German, Italian",Next,NA,NA,Did you only see less than ten of the balloons flying in the air?,NA,Next,NA,Sun Aug 22 2021 23:01:07 GMT+0200 (CEST),1629666067389,111.55343333333333,NA,fill_question,18,filler-implau
2778,,NA,35,Nice to be ready ;),COMP,Higher Degree,1629672760595,277,female,2,"German, Italian",Next,NA,NA,,450|349|450|427|1002|303|337|281|361|348|315|440,Next,I | saw | less | than | ten | of | the | balloons | flying | in | the | air.,Sun Aug 22 2021 23:01:07 GMT+0200 (CEST),1629666067389,111.55343333333333,8155,fill_answer,18,filler-implau
2778,"Based on this, the judge concludes:|How justified is the judge in drawing that conclusion?",8809,35,Nice to be ready ;),NA,Higher Degree,1629672760595,277,female,2,"German, Italian",NA,not justifiable at all,strongly justifiable,The witness thinks that the number of the balloons she saw flying in the air is comparably high.,NA,2,NA,Sun Aug 22 2021 23:01:07 GMT+0200 (CEST),1629666067389,111.55343333333333,NA,fill_conclusion,18,filler-implau
2778,The judge asks:|The witness responds:,20497,35,Nice to be ready ;),DID,Higher Degree,1629672760595,277,female,6,"German, Italian",Next,NA,NA,Did you certainly see animals roaming in the forest?,NA,Next,NA,Sun Aug 22 2021 23:01:07 GMT+0200 (CEST),1629666067389,111.55343333333333,NA,fill_question,19,filler-plau
2778,,NA,35,Nice to be ready ;),SUP,Higher Degree,1629672760595,277,female,6,"German, Italian",Next,NA,NA,,315|293|574|438|452|336|371|304|371|349|563,Next,I | probably | saw | at | most | ten | animals | roaming | in | the | forest.,Sun Aug 22 2021 23:01:07 GMT+0200 (CEST),1629666067389,111.55343333333333,7234,fill_answer,19,filler-plau
2778,"Based on this, the judge concludes:|How justified is the judge in drawing that conclusion?",9911,35,Nice to be ready ;),NA,Higher Degree,1629672760595,277,female,6,"German, Italian",NA,not justifiable at all,strongly justifiable,The witness thinks the number of animals she saw roaming in the forest is comparably low.,NA,1,NA,Sun Aug 22 2021 23:01:07 GMT+0200 (CEST),1629666067389,111.55343333333333,NA,fill_conclusion,19,filler-plau
2778,The judge asks:|The witness responds:,11476,35,Nice to be ready ;),WHAT,Higher Degree,1629672760595,277,female,1,"German, Italian",Next,NA,NA,What did you certainly see on the kitchen counter?,NA,Next,NA,Sun Aug 22 2021 23:01:07 GMT+0200 (CEST),1629666067389,111.55343333333333,NA,fill_question,20,filler-plau
2778,,NA,35,Nice to be ready ;),SUP,Higher Degree,1629672760595,277,female,1,"German, Italian",Next,NA,NA,,438|405|383|372|438|382|563|315|405|405|337|383|473,Next,I | saw | at | most | ten | of | the | bread | slices | on | the | kitchen | counter.,Sun Aug 22 2021 23:01:07 GMT+0200 (CEST),1629666067389,111.55343333333333,8694,fill_answer,20,filler-plau
2778,"Based on this, the judge concludes:|How justified is the judge in drawing that conclusion?",8876,35,Nice to be ready ;),NA,Higher Degree,1629672760595,277,female,1,"German, Italian",NA,not justifiable at all,strongly justifiable,The witness thinks that the number of bread slices is comparably low.,NA,1,NA,Sun Aug 22 2021 23:01:07 GMT+0200 (CEST),1629666067389,111.55343333333333,NA,fill_conclusion,20,filler-plau
2778,The judge asks:|The witness responds:,20340,35,Nice to be ready ;),DID,Higher Degree,1629672760595,277,female,9,"German, Italian",Next,NA,NA,Did you see only ten drug addicts at the party?,NA,Next,NA,Sun Aug 22 2021 23:01:07 GMT+0200 (CEST),1629666067389,111.55343333333333,NA,fill_question,21,filler-plau
2778,,NA,35,Nice to be ready ;),COMP,Higher Degree,1629672760595,277,female,9,"German, Italian",Next,NA,NA,,304|360|304|304|325|282|271|314|281|304,Next,I | saw | less | than | ten | drug | addicts | at | the | party.,Sun Aug 22 2021 23:01:07 GMT+0200 (CEST),1629666067389,111.55343333333333,6492,fill_answer,21,filler-plau
2778,"Based on this, the judge concludes:|How justified is the judge in drawing that conclusion?",6906,35,Nice to be ready ;),NA,Higher Degree,1629672760595,277,female,9,"German, Italian",NA,not justifiable at all,strongly justifiable,The witness thinks the number of drug addicts she saw at the party is comparably low.,NA,3,NA,Sun Aug 22 2021 23:01:07 GMT+0200 (CEST),1629666067389,111.55343333333333,NA,fill_conclusion,21,filler-plau
2778,The judge asks:|The witness responds:,11182,35,Nice to be ready ;),HOWMANY,Higher Degree,1629672760595,277,female,7,"German, Italian",Next,NA,NA,How many of the lollipops did you probably find in the drawer?,NA,Next,NA,Sun Aug 22 2021 23:01:07 GMT+0200 (CEST),1629666067389,111.55343333333333,NA,fill_question,22,filler-oi
2778,,NA,35,Nice to be ready ;),COMP,Higher Degree,1629672760595,277,female,7,"German, Italian",Next,NA,NA,,292|271|292|281|326|293|292|259|360|270|385,Next,I | found | less | than | ten | of | the | lollipops | in | the | drawer.,Sun Aug 22 2021 23:01:07 GMT+0200 (CEST),1629666067389,111.55343333333333,5929,fill_answer,22,filler-oi
2778,"Based on this, the judge concludes:|How justified is the judge in drawing that conclusion?",6266,35,Nice to be ready ;),NA,Higher Degree,1629672760595,277,female,7,"German, Italian",NA,not justifiable at all,strongly justifiable,The witness considers it possible that she found eleven of the lollipops in the drawer.,NA,1,NA,Sun Aug 22 2021 23:01:07 GMT+0200 (CEST),1629666067389,111.55343333333333,NA,fill_conclusion,22,filler-oi
2778,The judge asks:|The witness responds:,7841,35,Nice to be ready ;),DID,Higher Degree,1629672760595,277,female,1,"German, Italian",Next,NA,NA,Did you approximately see ten bread slices on the kitchen counter?,NA,Next,NA,Sun Aug 22 2021 23:01:07 GMT+0200 (CEST),1629666067389,111.55343333333333,NA,fill_question,23,filler-plau
2778,,NA,35,Nice to be ready ;),COMP,Higher Degree,1629672760595,277,female,1,"German, Italian",Next,NA,NA,,304|326|281|361|1687|506|383|315|326|303|326|789,Next,I | saw | probably | less | than | ten | bread | slices | on | the | kitchen | counter.,Sun Aug 22 2021 23:01:07 GMT+0200 (CEST),1629666067389,111.55343333333333,8764,fill_answer,23,filler-plau
2778,"Based on this, the judge concludes:|How justified is the judge in drawing that conclusion?",14366,35,Nice to be ready ;),NA,Higher Degree,1629672760595,277,female,1,"German, Italian",NA,not justifiable at all,strongly justifiable,The witness thinks that the number of the bread slices she saw on the kitchen counter is comparably low.,NA,3,NA,Sun Aug 22 2021 23:01:07 GMT+0200 (CEST),1629666067389,111.55343333333333,NA,fill_conclusion,23,filler-plau
2778,The judge asks:|The witness responds:,147657,35,Nice to be ready ;),POLAR,Higher Degree,1629672760595,277,female,8,"German, Italian",Next,NA,NA,Did you certainly find less than ten pictures of the assault in the locker?,NA,Next,NA,Sun Aug 22 2021 23:01:07 GMT+0200 (CEST),1629666067389,111.55343333333333,NA,fill_question,24,filler-oi
2778,,NA,35,Nice to be ready ;),COMP,Higher Degree,1629672760595,277,female,8,"German, Italian",Next,NA,NA,,416|415|428|461|416|405|450|304|360|1024|472|439,Next,I | certainly | found | less | than | ten | pictures | of the | assault | in | the | locker.,Sun Aug 22 2021 23:01:07 GMT+0200 (CEST),1629666067389,111.55343333333333,8456,fill_answer,24,filler-oi
2778,"Based on this, the judge concludes:|How justified is the judge in drawing that conclusion?",4691,35,Nice to be ready ;),NA,Higher Degree,1629672760595,277,female,8,"German, Italian",NA,not justifiable at all,strongly justifiable,The witness considers it possible that she saw eleven pictures of the assault in the locker.,NA,1,NA,Sun Aug 22 2021 23:01:07 GMT+0200 (CEST),1629666067389,111.55343333333333,NA,fill_conclusion,24,filler-oi
2778,The judge asks:|The witness responds:,7582,35,Nice to be ready ;),WHAT,Higher Degree,1629672760595,277,female,1,"German, Italian",Next,NA,NA,What did you find in the wallet?,NA,Next,NA,Sun Aug 22 2021 23:01:07 GMT+0200 (CEST),1629666067389,111.55343333333333,NA,question_view,13,main
2778,,NA,35,Nice to be ready ;),COMP,Higher Degree,1629672760595,277,female,1,"German, Italian",next,NA,NA,,348|461|406|382|427|372|348|315|326|326|428,next,I | found | less | than | ten | of | the | coins | in | the | wallet.,Sun Aug 22 2021 23:01:07 GMT+0200 (CEST),1629666067389,111.55343333333333,7470,answer_view,13,main
2778,"Based on this, the judge concludes:|How justified is the judge in drawing that conclusion?",8090,35,Nice to be ready ;),NA,Higher Degree,1629672760595,277,female,1,"German, Italian",NA,not justifiable at all,strongly justifiable,The witness doesn’t know exactly how many of the coins she found in the wallet.,NA,3,NA,Sun Aug 22 2021 23:01:07 GMT+0200 (CEST),1629666067389,111.55343333333333,NA,conclusion_view,13,main
2778,The judge asks:|The witness responds:,3137,35,Nice to be ready ;),WHAT,Higher Degree,1629672760595,277,female,2,"German, Italian",Next,NA,NA,What did you find in the bag?,NA,Next,NA,Sun Aug 22 2021 23:01:07 GMT+0200 (CEST),1629666067389,111.55343333333333,NA,question_view,14,main
2778,,NA,35,Nice to be ready ;),COMP,Higher Degree,1629672760595,277,female,2,"German, Italian",next,NA,NA,,292|349|304|326|292|327|720|461|427|484|1632,next, I | found | less | than | ten | of | the | pills | in  | the | bag.,Sun Aug 22 2021 23:01:07 GMT+0200 (CEST),1629666067389,111.55343333333333,8607,answer_view,14,main
2778,"Based on this, the judge concludes:|How justified is the judge in drawing that conclusion?",3250,35,Nice to be ready ;),NA,Higher Degree,1629672760595,277,female,2,"German, Italian",NA,not justifiable at all,strongly justifiable,The witness doesn’t know exactly how many of the pills she found in the bag.,NA,3,NA,Sun Aug 22 2021 23:01:07 GMT+0200 (CEST),1629666067389,111.55343333333333,NA,conclusion_view,14,main
2778,The judge asks:|The witness responds:,6660,35,Nice to be ready ;),WHAT,Higher Degree,1629672760595,277,female,6,"German, Italian",Next,NA,NA,What did you see on the kitchen counter?,NA,Next,NA,Sun Aug 22 2021 23:01:07 GMT+0200 (CEST),1629666067389,111.55343333333333,NA,question_view,15,main
2778,,NA,35,Nice to be ready ;),COMP,Higher Degree,1629672760595,277,female,6,"German, Italian",next,NA,NA,,428|405|427|810|597|618|1553|1395|450|438|349|382|845,next,I | saw | less | than | ten | of | the | shot | glasses | on | the | kitchen | counter.,Sun Aug 22 2021 23:01:07 GMT+0200 (CEST),1629666067389,111.55343333333333,11791,answer_view,15,main
2778,"Based on this, the judge concludes:|How justified is the judge in drawing that conclusion?",3722,35,Nice to be ready ;),NA,Higher Degree,1629672760595,277,female,6,"German, Italian",NA,not justifiable at all,strongly justifiable,The witness doesn’t know exactly how many of the shot glasses she saw on the kitchen counter.,NA,3,NA,Sun Aug 22 2021 23:01:07 GMT+0200 (CEST),1629666067389,111.55343333333333,NA,conclusion_view,15,main
2778,The judge asks:|The witness responds:,5737,35,Nice to be ready ;),WHAT,Higher Degree,1629672760595,277,female,4,"German, Italian",Next,NA,NA,What did you see in front of the bank?,NA,Next,NA,Sun Aug 22 2021 23:01:07 GMT+0200 (CEST),1629666067389,111.55343333333333,NA,question_view,16,main
2778,,NA,35,Nice to be ready ;),COMP,Higher Degree,1629672760595,277,female,4,"German, Italian",next,NA,NA,,393|371|372|393|338|360|360|304|314|293|326|383|1116,next,I | saw | less | than | ten | of | the | robbers | in | front | of | the | bank.,Sun Aug 22 2021 23:01:07 GMT+0200 (CEST),1629666067389,111.55343333333333,8190,answer_view,16,main
2778,"Based on this, the judge concludes:|How justified is the judge in drawing that conclusion?",11216,35,Nice to be ready ;),NA,Higher Degree,1629672760595,277,female,4,"German, Italian",NA,not justifiable at all,strongly justifiable,The witness doesn’t know exactly how many of the robbers she saw in front of the bank.,NA,3,NA,Sun Aug 22 2021 23:01:07 GMT+0200 (CEST),1629666067389,111.55343333333333,NA,conclusion_view,16,main
2778,The judge asks:|The witness responds:,4590,35,Nice to be ready ;),WHAT,Higher Degree,1629672760595,277,female,5,"German, Italian",Next,NA,NA,What did you see in the purse?,NA,Next,NA,Sun Aug 22 2021 23:01:07 GMT+0200 (CEST),1629666067389,111.55343333333333,NA,question_view,17,main
2778,,NA,35,Nice to be ready ;),COMP,Higher Degree,1629672760595,277,female,5,"German, Italian",next,NA,NA,,1655|426|461|440|314|270|349|293|258|292|587,next,I | saw | less | than | ten | of | the | bills | in  | the | purse.,Sun Aug 22 2021 23:01:07 GMT+0200 (CEST),1629666067389,111.55343333333333,9247,answer_view,17,main
2778,"Based on this, the judge concludes:|How justified is the judge in drawing that conclusion?",3937,35,Nice to be ready ;),NA,Higher Degree,1629672760595,277,female,5,"German, Italian",NA,not justifiable at all,strongly justifiable,The witness doesn’t know exactly how many of the bills she saw in the purse.,NA,3,NA,Sun Aug 22 2021 23:01:07 GMT+0200 (CEST),1629666067389,111.55343333333333,NA,conclusion_view,17,main
2778,The judge asks:|The witness responds:,19395,35,Nice to be ready ;),WHAT,Higher Degree,1629672760595,277,female,3,"German, Italian",Next,NA,NA,What did you hear coming from the school shooting?,NA,Next,NA,Sun Aug 22 2021 23:01:07 GMT+0200 (CEST),1629666067389,111.55343333333333,NA,question_view,18,main
2778,,NA,35,Nice to be ready ;),COMP,Higher Degree,1629672760595,277,female,3,"German, Italian",next,NA,NA,,304|315|394|405|337|304|270|260|280|292|327|303|338,next, I | heard | less | than | ten | of | the | shots | coming | from | the | school | shooting.,Sun Aug 22 2021 23:01:07 GMT+0200 (CEST),1629666067389,111.55343333333333,6930,answer_view,18,main
2778,"Based on this, the judge concludes:|How justified is the judge in drawing that conclusion?",3824,35,Nice to be ready ;),NA,Higher Degree,1629672760595,277,female,3,"German, Italian",NA,not justifiable at all,strongly justifiable,The witness doesn’t know exactly how many of the shots she heard coming from the school shooting.,NA,3,NA,Sun Aug 22 2021 23:01:07 GMT+0200 (CEST),1629666067389,111.55343333333333,NA,conclusion_view,18,main
2778,The judge asks:|The witness responds:,8381,35,Nice to be ready ;),DID,Higher Degree,1629672760595,277,female,9,"German, Italian",Next,NA,NA,Did you only see ten drug addicts at the party?,NA,Next,NA,Sun Aug 22 2021 23:01:07 GMT+0200 (CEST),1629666067389,111.55343333333333,NA,fill_question,25,filler-plau
2778,,NA,35,Nice to be ready ;),SUP,Higher Degree,1629672760595,277,female,9,"German, Italian",Next,NA,NA,,472|439|585|799|4117|371|294|280|338|451,Next,I | saw | at | most | ten | drug | addicts | at | the | party.,Sun Aug 22 2021 23:01:07 GMT+0200 (CEST),1629666067389,111.55343333333333,11002,fill_answer,25,filler-plau
2778,"Based on this, the judge concludes:|How justified is the judge in drawing that conclusion?",8865,35,Nice to be ready ;),NA,Higher Degree,1629672760595,277,female,9,"German, Italian",NA,not justifiable at all,strongly justifiable,The witness thinks the number of drug addicts she saw at the party is comparably low.,NA,2,NA,Sun Aug 22 2021 23:01:07 GMT+0200 (CEST),1629666067389,111.55343333333333,NA,fill_conclusion,25,filler-plau
2778,The judge asks:|The witness responds:,4309,35,Nice to be ready ;),WHAT,Higher Degree,1629672760595,277,female,6,"German, Italian",Next,NA,NA,What did you probably hear in the forest?,NA,Next,NA,Sun Aug 22 2021 23:01:07 GMT+0200 (CEST),1629666067389,111.55343333333333,NA,fill_question,26,filler-ov
2778,,NA,35,Nice to be ready ;),SUP,Higher Degree,1629672760595,277,female,6,"German, Italian",Next,NA,NA,,247|270|259|281|281|304|1362|326|281|416,Next,I | heard | at | most | ten | animals | howling | in | the | forest.,Sun Aug 22 2021 23:01:07 GMT+0200 (CEST),1629666067389,111.55343333333333,9878,fill_answer,26,filler-ov
2778,"Based on this, the judge concludes:|How justified is the judge in drawing that conclusion?",16986,35,Nice to be ready ;),NA,Higher Degree,1629672760595,277,female,6,"German, Italian",NA,not justifiable at all,strongly justifiable,The witness considers it possible that she heard ten animals howling in the forest.,NA,3,NA,Sun Aug 22 2021 23:01:07 GMT+0200 (CEST),1629666067389,111.55343333333333,NA,fill_conclusion,26,filler-ov
2778,The judge asks:|The witness responds:,63844,35,Nice to be ready ;),WHAT,Higher Degree,1629672760595,277,female,7,"German, Italian",Next,NA,NA,What did you certainly find in the drawer?,NA,Next,NA,Sun Aug 22 2021 23:01:07 GMT+0200 (CEST),1629666067389,111.55343333333333,NA,fill_question,27,filler-oi
2778,,NA,35,Nice to be ready ;),COMP,Higher Degree,1629672760595,277,female,7,"German, Italian",Next,NA,NA,,314|416|710|482|394|282|258|225|473|315|517,Next,I | found | less | than | ten | of | the | lollipops | in | the | drawer.,Sun Aug 22 2021 23:01:07 GMT+0200 (CEST),1629666067389,111.55343333333333,7007,fill_answer,27,filler-oi
2778,"Based on this, the judge concludes:|How justified is the judge in drawing that conclusion?",8110,35,Nice to be ready ;),NA,Higher Degree,1629672760595,277,female,7,"German, Italian",NA,not justifiable at all,strongly justifiable,The witness considers it possible that she found eleven of the lollipops in the drawer.,NA,1,NA,Sun Aug 22 2021 23:01:07 GMT+0200 (CEST),1629666067389,111.55343333333333,NA,fill_conclusion,27,filler-oi
2778,The judge asks:|The witness responds:,48757,35,Nice to be ready ;),HOWMANY,Higher Degree,1629672760595,277,female,7,"German, Italian",Next,NA,NA,How many of the lollipops did you certainly find in the drawer?,NA,Next,NA,Sun Aug 22 2021 23:01:07 GMT+0200 (CEST),1629666067389,111.55343333333333,NA,fill_question,28,filler-oi
2778,,NA,35,Nice to be ready ;),SUP,Higher Degree,1629672760595,277,female,7,"German, Italian",Next,NA,NA,,416|349|360|406|314|304|270|236|203|191|338,Next,I | found | at | most | ten | of | the | lollipops | in | the | drawer.,Sun Aug 22 2021 23:01:07 GMT+0200 (CEST),1629666067389,111.55343333333333,6435,fill_answer,28,filler-oi
2778,"Based on this, the judge concludes:|How justified is the judge in drawing that conclusion?",12139,35,Nice to be ready ;),NA,Higher Degree,1629672760595,277,female,7,"German, Italian",NA,not justifiable at all,strongly justifiable,The witness considers it possible that she found eleven of the lollipops in the drawer.,NA,4,NA,Sun Aug 22 2021 23:01:07 GMT+0200 (CEST),1629666067389,111.55343333333333,NA,fill_conclusion,28,filler-oi
2778,The judge asks:|The witness responds:,23591,35,Nice to be ready ;),WHAT,Higher Degree,1629672760595,277,female,3,"German, Italian",Next,NA,NA,What did you certainly find in the office?,NA,Next,NA,Sun Aug 22 2021 23:01:07 GMT+0200 (CEST),1629666067389,111.55343333333333,NA,fill_question,29,filler-ov
2778,,NA,35,Nice to be ready ;),SUP,Higher Degree,1629672760595,277,female,3,"German, Italian",Next,NA,NA,,506|372|405|393|315|338|450|337|360,Next,I | found | at | most | ten | corpses | in | the | office.,Sun Aug 22 2021 23:01:07 GMT+0200 (CEST),1629666067389,111.55343333333333,6210,fill_answer,29,filler-ov
2778,"Based on this, the judge concludes:|How justified is the judge in drawing that conclusion?",16481,35,Nice to be ready ;),NA,Higher Degree,1629672760595,277,female,3,"German, Italian",NA,not justifiable at all,strongly justifiable,The witness considers it possible that she saw nine corpses at the office.,NA,2,NA,Sun Aug 22 2021 23:01:07 GMT+0200 (CEST),1629666067389,111.55343333333333,NA,fill_conclusion,29,filler-ov
2778,The judge asks:|The witness responds:,135349,35,Nice to be ready ;),POLAR,Higher Degree,1629672760595,277,female,4,"German, Italian",Next,NA,NA,Did you find at most ten children while trying to escape the fire?,NA,Next,NA,Sun Aug 22 2021 23:01:07 GMT+0200 (CEST),1629666067389,111.55343333333333,NA,fill_question,30,filler-implau
2778,,NA,35,Nice to be ready ;),SUP,Higher Degree,1629672760595,277,female,4,"German, Italian",Next,NA,NA,,303|362|324|372|282|247|224|203|225|282|349|337,Next,I | found | at | most | ten | children | while | trying | to | escape | the | fire.,Sun Aug 22 2021 23:01:07 GMT+0200 (CEST),1629666067389,111.55343333333333,6366,fill_answer,30,filler-implau
2778,"Based on this, the judge concludes:|How justified is the judge in drawing that conclusion?",13049,35,Nice to be ready ;),NA,Higher Degree,1629672760595,277,female,4,"German, Italian",NA,not justifiable at all,strongly justifiable,The witness thinks the number of children they found trying to escape the fire is comparably high.,NA,3,NA,Sun Aug 22 2021 23:01:07 GMT+0200 (CEST),1629666067389,111.55343333333333,NA,fill_conclusion,30,filler-implau
2778,The judge asks:|The witness responds:,18439,35,Nice to be ready ;),POLAR,Higher Degree,1629672760595,277,female,3,"German, Italian",Next,NA,NA,Did you certainly find less than ten corpses in the office?,NA,Next,NA,Sun Aug 22 2021 23:01:07 GMT+0200 (CEST),1629666067389,111.55343333333333,NA,fill_question,31,filler-oi
2778,,NA,35,Nice to be ready ;),COMP,Higher Degree,1629672760595,277,female,3,"German, Italian",Next,NA,NA,,506|417|393|349|326|315|586|404|372,Next,I | found | less | than | ten | corpses | in | the | office.,Sun Aug 22 2021 23:01:07 GMT+0200 (CEST),1629666067389,111.55343333333333,6390,fill_answer,31,filler-oi
2778,"Based on this, the judge concludes:|How justified is the judge in drawing that conclusion?",5512,35,Nice to be ready ;),NA,Higher Degree,1629672760595,277,female,3,"German, Italian",NA,not justifiable at all,strongly justifiable,The witness considers it possible that she saw eleven corpses at the office.,NA,1,NA,Sun Aug 22 2021 23:01:07 GMT+0200 (CEST),1629666067389,111.55343333333333,NA,fill_conclusion,31,filler-oi
2778,The judge asks:|The witness responds:,44741,35,Nice to be ready ;),DID,Higher Degree,1629672760595,277,female,2,"German, Italian",Next,NA,NA,Did you certainly see ten balloons flying in the air?,NA,Next,NA,Sun Aug 22 2021 23:01:07 GMT+0200 (CEST),1629666067389,111.55343333333333,NA,fill_question,32,filler-oi
2778,,NA,35,Nice to be ready ;),SUP,Higher Degree,1629672760595,277,female,2,"German, Italian",Next,NA,NA,,450|450|484|450|506|608|461|517|349|439|743,Next,I | probably | saw | at | most | ten | balloons | flying | in | the | air.,Sun Aug 22 2021 23:01:07 GMT+0200 (CEST),1629666067389,111.55343333333333,8516,fill_answer,32,filler-oi
2778,"Based on this, the judge concludes:|How justified is the judge in drawing that conclusion?",6390,35,Nice to be ready ;),NA,Higher Degree,1629672760595,277,female,2,"German, Italian",NA,not justifiable at all,strongly justifiable,The witness considers it possible that she saw eleven balloons flying in the air.,NA,4,NA,Sun Aug 22 2021 23:01:07 GMT+0200 (CEST),1629666067389,111.55343333333333,NA,fill_conclusion,32,filler-oi
2778,The judge asks:|The witness responds:,13668,35,Nice to be ready ;),POLAR,Higher Degree,1629672760595,277,female,3,"German, Italian",Next,NA,NA,Did you find at most ten corpses in the office?,NA,Next,NA,Sun Aug 22 2021 23:01:07 GMT+0200 (CEST),1629666067389,111.55343333333333,NA,fill_question,33,filler-oi
2778,,NA,35,Nice to be ready ;),SUP,Higher Degree,1629672760595,277,female,3,"German, Italian",Next,NA,NA,,484|394|405|371|337|979|349|304|281,Next,I | found | at | most | ten | corpses | in | the | office.,Sun Aug 22 2021 23:01:07 GMT+0200 (CEST),1629666067389,111.55343333333333,7008,fill_answer,33,filler-oi
2778,"Based on this, the judge concludes:|How justified is the judge in drawing that conclusion?",6862,35,Nice to be ready ;),NA,Higher Degree,1629672760595,277,female,3,"German, Italian",NA,not justifiable at all,strongly justifiable,The witness considers it possible that they saw eleven corpses at the office.,NA,4,NA,Sun Aug 22 2021 23:01:07 GMT+0200 (CEST),1629666067389,111.55343333333333,NA,fill_conclusion,33,filler-oi
2778,The judge asks:|The witness responds:,120800,35,Nice to be ready ;),HOWMANY,Higher Degree,1629672760595,277,female,1,"German, Italian",Next,NA,NA,How many slices of the bread did you see on the kitchen counter?,NA,Next,NA,Sun Aug 22 2021 23:01:07 GMT+0200 (CEST),1629666067389,111.55343333333333,NA,fill_question,34,filler-implau
2778,,NA,35,Nice to be ready ;),COMP,Higher Degree,1629672760595,277,female,1,"German, Italian",Next,NA,NA,,359|394|304|315|292|293|259|236|259|247|293|270|349|327,Next,I | only | saw | less | than | ten | of | the | bread | slices | on | the | kitchen | counter.,Sun Aug 22 2021 23:01:07 GMT+0200 (CEST),1629666067389,111.55343333333333,7492,fill_answer,34,filler-implau
2778,"Based on this, the judge concludes:|How justified is the judge in drawing that conclusion?",16685,35,Nice to be ready ;),NA,Higher Degree,1629672760595,277,female,1,"German, Italian",NA,not justifiable at all,strongly justifiable,The witness thinks that the number of the bread slices she saw on the kitchen counter is comparably high.,NA,3,NA,Sun Aug 22 2021 23:01:07 GMT+0200 (CEST),1629666067389,111.55343333333333,NA,fill_conclusion,34,filler-implau
2778,The judge asks:|The witness responds:,14040,35,Nice to be ready ;),POLAR,Higher Degree,1629672760595,277,female,6,"German, Italian",Next,NA,NA,Did you certainly hear at most ten animals howling in the forest?,NA,Next,NA,Sun Aug 22 2021 23:01:07 GMT+0200 (CEST),1629666067389,111.55343333333333,NA,fill_question,35,filler-ov
2778,,NA,35,Nice to be ready ;),SUP,Higher Degree,1629672760595,277,female,6,"German, Italian",Next,NA,NA,,427|395|383|1473|326|281|259|270|315|326,Next,I | heard | at | most | ten | animals | howling | in | the | forest.,Sun Aug 22 2021 23:01:07 GMT+0200 (CEST),1629666067389,111.55343333333333,7222,fill_answer,35,filler-ov
2778,"Based on this, the judge concludes:|How justified is the judge in drawing that conclusion?",6749,35,Nice to be ready ;),NA,Higher Degree,1629672760595,277,female,6,"German, Italian",NA,not justifiable at all,strongly justifiable,The witness considers it possible that she heard nine animals howling in the forest.,NA,1,NA,Sun Aug 22 2021 23:01:07 GMT+0200 (CEST),1629666067389,111.55343333333333,NA,fill_conclusion,35,filler-ov
2778,The judge asks:|The witness responds:,22387,35,Nice to be ready ;),WHAT,Higher Degree,1629672760595,277,female,2,"German, Italian",Next,NA,NA,What did you certainly see flying in the air?,NA,Next,NA,Sun Aug 22 2021 23:01:07 GMT+0200 (CEST),1629666067389,111.55343333333333,NA,fill_question,36,filler-ov
2778,,NA,35,Nice to be ready ;),SUP,Higher Degree,1629672760595,277,female,2,"German, Italian",Next,NA,NA,,417|382|1125|382|338|292|282|281|247|270|259|484,Next,I | saw | at | most | ten | of | the | balloons | flying | in | the | air.,Sun Aug 22 2021 23:01:07 GMT+0200 (CEST),1629666067389,111.55343333333333,8301,fill_answer,36,filler-ov
2778,"Based on this, the judge concludes:|How justified is the judge in drawing that conclusion?",15131,35,Nice to be ready ;),NA,Higher Degree,1629672760595,277,female,2,"German, Italian",NA,not justifiable at all,strongly justifiable,The witness considers it possible that she saw ten of the balloons flying in the air.,NA,3,NA,Sun Aug 22 2021 23:01:07 GMT+0200 (CEST),1629666067389,111.55343333333333,NA,fill_conclusion,36,filler-ov
2778,The judge asks:|The witness responds:,16908,35,Nice to be ready ;),POLAR,Higher Degree,1629672760595,277,female,5,"German, Italian",Next,NA,NA,Did you see less than ten of the bills in the purse?,NA,Next,NA,Sun Aug 22 2021 23:01:07 GMT+0200 (CEST),1629666067389,111.55343333333333,NA,question_view,19,main
2778,,NA,35,Nice to be ready ;),COMP,Higher Degree,1629672760595,277,female,5,"German, Italian",next,NA,NA,,393|394|428|461|517|327|270|202|203|258|485,next,I | saw | less | than | ten | of | the | bills | in  | the | purse.,Sun Aug 22 2021 23:01:07 GMT+0200 (CEST),1629666067389,111.55343333333333,7414,answer_view,19,main
2778,"Based on this, the judge concludes:|How justified is the judge in drawing that conclusion?",7941,35,Nice to be ready ;),NA,Higher Degree,1629672760595,277,female,5,"German, Italian",NA,not justifiable at all,strongly justifiable,The witness doesn’t know exactly how many of the bills she saw in the purse.,NA,3,NA,Sun Aug 22 2021 23:01:07 GMT+0200 (CEST),1629666067389,111.55343333333333,NA,conclusion_view,19,main
2778,The judge asks:|The witness responds:,40061,35,Nice to be ready ;),POLAR,Higher Degree,1629672760595,277,female,4,"German, Italian",Next,NA,NA,Did you see less than ten of the robbers in front of the bank?,NA,Next,NA,Sun Aug 22 2021 23:01:07 GMT+0200 (CEST),1629666067389,111.55343333333333,NA,question_view,20,main
2778,,NA,35,Nice to be ready ;),COMP,Higher Degree,1629672760595,277,female,4,"German, Italian",next,NA,NA,,449|461|484|473|506|608|517|574|573|563|495|394|473,next,I | saw | less | than | ten | of | the | robbers | in | front | of | the | bank.,Sun Aug 22 2021 23:01:07 GMT+0200 (CEST),1629666067389,111.55343333333333,13284,answer_view,20,main
2778,"Based on this, the judge concludes:|How justified is the judge in drawing that conclusion?",8764,35,Nice to be ready ;),NA,Higher Degree,1629672760595,277,female,4,"German, Italian",NA,not justifiable at all,strongly justifiable,The witness doesn’t know exactly how many of the robbers she saw in front of the bank.,NA,3,NA,Sun Aug 22 2021 23:01:07 GMT+0200 (CEST),1629666067389,111.55343333333333,NA,conclusion_view,20,main
2778,The judge asks:|The witness responds:,103355,35,Nice to be ready ;),POLAR,Higher Degree,1629672760595,277,female,3,"German, Italian",Next,NA,NA,Did you hear less than ten of the shots coming from the school shooting?,NA,Next,NA,Sun Aug 22 2021 23:01:07 GMT+0200 (CEST),1629666067389,111.55343333333333,NA,question_view,21,main
2778,,NA,35,Nice to be ready ;),COMP,Higher Degree,1629672760595,277,female,3,"German, Italian",next,NA,NA,,427|383|327|303|292|225|225|236|361|67|236|304|293,next, I | heard | less | than | ten | of | the | shots | coming | from | the | school | shooting.,Sun Aug 22 2021 23:01:07 GMT+0200 (CEST),1629666067389,111.55343333333333,6254,answer_view,21,main
2778,"Based on this, the judge concludes:|How justified is the judge in drawing that conclusion?",6986,35,Nice to be ready ;),NA,Higher Degree,1629672760595,277,female,3,"German, Italian",NA,not justifiable at all,strongly justifiable,The witness doesn’t know exactly how many of the shots she heard coming from the school shooting.,NA,4,NA,Sun Aug 22 2021 23:01:07 GMT+0200 (CEST),1629666067389,111.55343333333333,NA,conclusion_view,21,main
2778,The judge asks:|The witness responds:,125506,35,Nice to be ready ;),POLAR,Higher Degree,1629672760595,277,female,6,"German, Italian",Next,NA,NA,Did you find less than ten of the shot glasses on the kitchen counter?,NA,Next,NA,Sun Aug 22 2021 23:01:07 GMT+0200 (CEST),1629666067389,111.55343333333333,NA,question_view,22,main
2778,,NA,35,Nice to be ready ;),COMP,Higher Degree,1629672760595,277,female,6,"German, Italian",next,NA,NA,,405|404|349|338|281|225|214|191|191|202|226|213|204,next,I | found | less | than | ten | of | the | shot | glasses | on | the | kitchen | counter.,Sun Aug 22 2021 23:01:07 GMT+0200 (CEST),1629666067389,111.55343333333333,7222,answer_view,22,main
2778,"Based on this, the judge concludes:|How justified is the judge in drawing that conclusion?",5985,35,Nice to be ready ;),NA,Higher Degree,1629672760595,277,female,6,"German, Italian",NA,not justifiable at all,strongly justifiable,The witness doesn’t know exactly how many of the shot glasses she found on the kitchen counter.,NA,4,NA,Sun Aug 22 2021 23:01:07 GMT+0200 (CEST),1629666067389,111.55343333333333,NA,conclusion_view,22,main
2778,The judge asks:|The witness responds:,58478,35,Nice to be ready ;),POLAR,Higher Degree,1629672760595,277,female,2,"German, Italian",Next,NA,NA, Did you find less than ten of the pills in the bag?,NA,Next,NA,Sun Aug 22 2021 23:01:07 GMT+0200 (CEST),1629666067389,111.55343333333333,NA,question_view,23,main
2778,,NA,35,Nice to be ready ;),COMP,Higher Degree,1629672760595,277,female,2,"German, Italian",next,NA,NA,,406|382|360|303|259|237|652|462|269|259|338,next, I | found | less | than | ten | of | the | pills | in  | the | bag.,Sun Aug 22 2021 23:01:07 GMT+0200 (CEST),1629666067389,111.55343333333333,7054,answer_view,23,main
2778,"Based on this, the judge concludes:|How justified is the judge in drawing that conclusion?",20723,35,Nice to be ready ;),NA,Higher Degree,1629672760595,277,female,2,"German, Italian",NA,not justifiable at all,strongly justifiable,The witness doesn’t know exactly how many of the pills she found in the bag.,NA,4,NA,Sun Aug 22 2021 23:01:07 GMT+0200 (CEST),1629666067389,111.55343333333333,NA,conclusion_view,23,main
2778,The judge asks:|The witness responds:,47711,35,Nice to be ready ;),POLAR,Higher Degree,1629672760595,277,female,1,"German, Italian",Next,NA,NA,Did you find less than ten of the coins in the wallet?,NA,Next,NA,Sun Aug 22 2021 23:01:07 GMT+0200 (CEST),1629666067389,111.55343333333333,NA,question_view,24,main
2778,,NA,35,Nice to be ready ;),COMP,Higher Degree,1629672760595,277,female,1,"German, Italian",next,NA,NA,,359|338|281|237|246|327|361|348|270|371|439,next,I | found | less | than | ten | of | the | coins | in | the | wallet.,Sun Aug 22 2021 23:01:07 GMT+0200 (CEST),1629666067389,111.55343333333333,6637,answer_view,24,main
2778,"Based on this, the judge concludes:|How justified is the judge in drawing that conclusion?",3925,35,Nice to be ready ;),NA,Higher Degree,1629672760595,277,female,1,"German, Italian",NA,not justifiable at all,strongly justifiable,The witness doesn’t know exactly how many of the coins she found in the wallet.,NA,4,NA,Sun Aug 22 2021 23:01:07 GMT+0200 (CEST),1629666067389,111.55343333333333,NA,conclusion_view,24,main
2778,The judge asks:|The witness responds:,3341,35,Nice to be ready ;),WHAT,Higher Degree,1629672760595,277,female,8,"German, Italian",Next,NA,NA,What did you find in the locker?,NA,Next,NA,Sun Aug 22 2021 23:01:07 GMT+0200 (CEST),1629666067389,111.55343333333333,NA,fill_question,37,filler-oi
2778,,NA,35,Nice to be ready ;),COMP,Higher Degree,1629672760595,277,female,8,"German, Italian",Next,NA,NA,,371|495|462|506|945|630|484|933|450|484|642|1507,Next,I | only | found | less | than | ten | pictures | of the | assault | in | the | locker.,Sun Aug 22 2021 23:01:07 GMT+0200 (CEST),1629666067389,111.55343333333333,16380,fill_answer,37,filler-oi
2778,"Based on this, the judge concludes:|How justified is the judge in drawing that conclusion?",8696,35,Nice to be ready ;),NA,Higher Degree,1629672760595,277,female,8,"German, Italian",NA,not justifiable at all,strongly justifiable,The witness considers it possible that she saw eleven pictures of the assault in the locker.,NA,1,NA,Sun Aug 22 2021 23:01:07 GMT+0200 (CEST),1629666067389,111.55343333333333,NA,fill_conclusion,37,filler-oi
2778,The judge asks:|The witness responds:,7504,35,Nice to be ready ;),DID,Higher Degree,1629672760595,277,female,8,"German, Italian",Next,NA,NA,Did you only see ten pictures of the assault in the locker?,NA,Next,NA,Sun Aug 22 2021 23:01:07 GMT+0200 (CEST),1629666067389,111.55343333333333,NA,fill_question,38,filler-ov
2778,,NA,35,Nice to be ready ;),COMP,Higher Degree,1629672760595,277,female,8,"German, Italian",Next,NA,NA,,337|326|304|417|461|360|326|315|405|304|248,Next,I | saw | less | than | ten | pictures | of the | assault | in | the | locker.,Sun Aug 22 2021 23:01:07 GMT+0200 (CEST),1629666067389,111.55343333333333,6547,fill_answer,38,filler-ov
2778,"Based on this, the judge concludes:|How justified is the judge in drawing that conclusion?",5849,35,Nice to be ready ;),NA,Higher Degree,1629672760595,277,female,8,"German, Italian",NA,not justifiable at all,strongly justifiable,The witness considers it possible that she saw nine pictures of the assault in the locker.,NA,4,NA,Sun Aug 22 2021 23:01:07 GMT+0200 (CEST),1629666067389,111.55343333333333,NA,fill_conclusion,38,filler-ov
2778,The judge asks:|The witness responds:,79257,35,Nice to be ready ;),WHAT,Higher Degree,1629672760595,277,female,2,"German, Italian",Next,NA,NA,What did you probably see flying in the air?,NA,Next,NA,Sun Aug 22 2021 23:01:07 GMT+0200 (CEST),1629666067389,111.55343333333333,NA,fill_question,39,filler-plau
2778,,NA,35,Nice to be ready ;),COMP,Higher Degree,1629672760595,277,female,2,"German, Italian",Next,NA,NA,,348|405|372|393|338|405|450|1013|292|270|270|327|292,Next,I | only | saw | less | than | ten | of | the | balloons | flying | in | the | air.,Sun Aug 22 2021 23:01:07 GMT+0200 (CEST),1629666067389,111.55343333333333,8314,fill_answer,39,filler-plau
2778,"Based on this, the judge concludes:|How justified is the judge in drawing that conclusion?",11790,35,Nice to be ready ;),NA,Higher Degree,1629672760595,277,female,2,"German, Italian",NA,not justifiable at all,strongly justifiable,The witness thinks that the number of the balloons flying in the air is comparably low.,NA,3,NA,Sun Aug 22 2021 23:01:07 GMT+0200 (CEST),1629666067389,111.55343333333333,NA,fill_conclusion,39,filler-plau
2778,The judge asks:|The witness responds:,5085,35,Nice to be ready ;),DID,Higher Degree,1629672760595,277,female,5,"German, Italian",Next,NA,NA,Did you hear women shouting at this event?,NA,Next,NA,Sun Aug 22 2021 23:01:07 GMT+0200 (CEST),1629666067389,111.55343333333333,NA,fill_question,40,filler-plau
2778,,NA,35,Nice to be ready ;),SUP,Higher Degree,1629672760595,277,female,5,"German, Italian",Next,NA,NA,,394|405|394|382|383|461|472|282|236|248|371,Next,I | certainly | heard | at | most | ten | women | shouting | at | this | event.,Sun Aug 22 2021 23:01:07 GMT+0200 (CEST),1629666067389,111.55343333333333,8111,fill_answer,40,filler-plau
2778,"Based on this, the judge concludes:|How justified is the judge in drawing that conclusion?",8156,35,Nice to be ready ;),NA,Higher Degree,1629672760595,277,female,5,"German, Italian",NA,not justifiable at all,strongly justifiable,The witness thinks the number of women she heard shouting at this event is comparably low.,NA,2,NA,Sun Aug 22 2021 23:01:07 GMT+0200 (CEST),1629666067389,111.55343333333333,NA,fill_conclusion,40,filler-plau
2778,The judge asks:|The witness responds:,23422,35,Nice to be ready ;),WHAT,Higher Degree,1629672760595,277,female,4,"German, Italian",Next,NA,NA,What did you certainly find while trying to escape the fire?,NA,Next,NA,Sun Aug 22 2021 23:01:07 GMT+0200 (CEST),1629666067389,111.55343333333333,NA,fill_question,41,filler-plau
2778,,NA,35,Nice to be ready ;),SUP,Higher Degree,1629672760595,277,female,4,"German, Italian",Next,NA,NA,,550|507|495|551|394|495|483|529|552|472|406|550,Next,I | found | at | most | ten | children | while | trying | to | escape | the | fire.,Sun Aug 22 2021 23:01:07 GMT+0200 (CEST),1629666067389,111.55343333333333,10563,fill_answer,41,filler-plau
2778,"Based on this, the judge concludes:|How justified is the judge in drawing that conclusion?",42086,35,Nice to be ready ;),NA,Higher Degree,1629672760595,277,female,4,"German, Italian",NA,not justifiable at all,strongly justifiable,The witness thinks the number of children she found trying to escape the fire is comparably low.,NA,1,NA,Sun Aug 22 2021 23:01:07 GMT+0200 (CEST),1629666067389,111.55343333333333,NA,fill_conclusion,41,filler-plau
2778,The judge asks:|The witness responds:,276281,35,Nice to be ready ;),DID,Higher Degree,1629672760595,277,female,4,"German, Italian",Next,NA,NA,Did you find children while trying to escape the fire?,NA,Next,NA,Sun Aug 22 2021 23:01:07 GMT+0200 (CEST),1629666067389,111.55343333333333,NA,fill_question,42,filler-plau
2778,,NA,35,Nice to be ready ;),COMP,Higher Degree,1629672760595,277,female,4,"German, Italian",Next,NA,NA,,394|371|439|383|348|281|248|248|270|574|292|518,Next,I | found | less | than | ten | children | while | trying | to | escape | the | fire.,Sun Aug 22 2021 23:01:07 GMT+0200 (CEST),1629666067389,111.55343333333333,8032,fill_answer,42,filler-plau
2778,"Based on this, the judge concludes:|How justified is the judge in drawing that conclusion?",11903,35,Nice to be ready ;),NA,Higher Degree,1629672760595,277,female,4,"German, Italian",NA,not justifiable at all,strongly justifiable,The witness thinks the number of children she found trying to escape the fire is comparably low.,NA,4,NA,Sun Aug 22 2021 23:01:07 GMT+0200 (CEST),1629666067389,111.55343333333333,NA,fill_conclusion,42,filler-plau
2778,The judge asks:|The witness responds:,22399,35,Nice to be ready ;),DID,Higher Degree,1629672760595,277,female,2,"German, Italian",Next,NA,NA,Did you only see ten of the balloons flying in the air?,NA,Next,NA,Sun Aug 22 2021 23:01:07 GMT+0200 (CEST),1629666067389,111.55343333333333,NA,fill_question,43,filler-plau
2778,,NA,35,Nice to be ready ;),COMP,Higher Degree,1629672760595,277,female,2,"German, Italian",Next,NA,NA,,517|608|461|427|439|416|327|326|292|270|282|348|350,Next,I | probably | saw | less | than | ten | of | the | balloons | flying | in | the | air.,Sun Aug 22 2021 23:01:07 GMT+0200 (CEST),1629666067389,111.55343333333333,8718,fill_answer,43,filler-plau
2778,"Based on this, the judge concludes:|How justified is the judge in drawing that conclusion?",12442,35,Nice to be ready ;),NA,Higher Degree,1629672760595,277,female,2,"German, Italian",NA,not justifiable at all,strongly justifiable,The witness thinks that the number of the balloons she saw flying in the air is comparably low.,NA,4,NA,Sun Aug 22 2021 23:01:07 GMT+0200 (CEST),1629666067389,111.55343333333333,NA,fill_conclusion,43,filler-plau
2778,The judge asks:|The witness responds:,7886,35,Nice to be ready ;),WHAT,Higher Degree,1629672760595,277,female,1,"German, Italian",Next,NA,NA,What did you certainly see on the kitchen counter?,NA,Next,NA,Sun Aug 22 2021 23:01:07 GMT+0200 (CEST),1629666067389,111.55343333333333,NA,fill_question,44,filler-implau
2778,,NA,35,Nice to be ready ;),COMP,Higher Degree,1629672760595,277,female,1,"German, Italian",Next,NA,NA,,404|405|417|405|349|281|270|236|214|281|259|225|416,Next,I | saw | less | than | ten | of | the | bread | slices | on | the | kitchen | counter.,Sun Aug 22 2021 23:01:07 GMT+0200 (CEST),1629666067389,111.55343333333333,7582,fill_answer,44,filler-implau
2778,"Based on this, the judge concludes:|How justified is the judge in drawing that conclusion?",7942,35,Nice to be ready ;),NA,Higher Degree,1629672760595,277,female,1,"German, Italian",NA,not justifiable at all,strongly justifiable,The witness thinks that the number of the bread slices is comparably high.,NA,2,NA,Sun Aug 22 2021 23:01:07 GMT+0200 (CEST),1629666067389,111.55343333333333,NA,fill_conclusion,44,filler-implau
2778,The judge asks:|The witness responds:,4533,35,Nice to be ready ;),DID,Higher Degree,1629672760595,277,female,5,"German, Italian",Next,NA,NA,Did you hear women shouting at this event?,NA,Next,NA,Sun Aug 22 2021 23:01:07 GMT+0200 (CEST),1629666067389,111.55343333333333,NA,fill_question,45,filler-plau
2778,,NA,35,Nice to be ready ;),COMP,Higher Degree,1629672760595,277,female,5,"German, Italian",Next,NA,NA,,360|450|417|483|349|338|337|349|417,Next,I | heard | less| than | ten | women | shouting | at | this | event.,Sun Aug 22 2021 23:01:07 GMT+0200 (CEST),1629666067389,111.55343333333333,8921,fill_answer,45,filler-plau
2778,"Based on this, the judge concludes:|How justified is the judge in drawing that conclusion?",10350,35,Nice to be ready ;),NA,Higher Degree,1629672760595,277,female,5,"German, Italian",NA,not justifiable at all,strongly justifiable,The witness thinks the number of women she heard shouting at this event is comparably low.,NA,3,NA,Sun Aug 22 2021 23:01:07 GMT+0200 (CEST),1629666067389,111.55343333333333,NA,fill_conclusion,45,filler-plau
2778,The judge asks:|The witness responds:,130243,35,Nice to be ready ;),HOWMANY,Higher Degree,1629672760595,277,female,2,"German, Italian",Next,NA,NA,Approximately how many of the balloons did you see flying in the air?,NA,Next,NA,Sun Aug 22 2021 23:01:07 GMT+0200 (CEST),1629666067389,111.55343333333333,NA,fill_question,46,filler-implau
2778,,NA,35,Nice to be ready ;),COMP,Higher Degree,1629672760595,277,female,2,"German, Italian",Next,NA,NA,,383|360|382|315|270|247|247|248|203|202|270|271,Next,I | saw | less | than | ten | of | the | balloons | flying | in | the | air.,Sun Aug 22 2021 23:01:07 GMT+0200 (CEST),1629666067389,111.55343333333333,6885,fill_answer,46,filler-implau
2778,"Based on this, the judge concludes:|How justified is the judge in drawing that conclusion?",8707,35,Nice to be ready ;),NA,Higher Degree,1629672760595,277,female,2,"German, Italian",NA,not justifiable at all,strongly justifiable,The witness thinks that the number of the balloons she saw flying in the air is comparably high.,NA,2,NA,Sun Aug 22 2021 23:01:07 GMT+0200 (CEST),1629666067389,111.55343333333333,NA,fill_conclusion,46,filler-implau
2778,The judge asks:|The witness responds:,33502,35,Nice to be ready ;),DID,Higher Degree,1629672760595,277,female,3,"German, Italian",Next,NA,NA,Did you find only ten corpses in the office?,NA,Next,NA,Sun Aug 22 2021 23:01:07 GMT+0200 (CEST),1629666067389,111.55343333333333,NA,fill_question,47,filler-oi
2778,,NA,35,Nice to be ready ;),SUP,Higher Degree,1629672760595,277,female,3,"German, Italian",Next,NA,NA,,326|293|315|292|248|258|226|213|214,Next,I | found | at | most | ten | corpses | in | the | office.,Sun Aug 22 2021 23:01:07 GMT+0200 (CEST),1629666067389,111.55343333333333,5523,fill_answer,47,filler-oi
2778,"Based on this, the judge concludes:|How justified is the judge in drawing that conclusion?",6029,35,Nice to be ready ;),NA,Higher Degree,1629672760595,277,female,3,"German, Italian",NA,not justifiable at all,strongly justifiable,The witness considers it possible that she saw eleven corpses at the office.,NA,4,NA,Sun Aug 22 2021 23:01:07 GMT+0200 (CEST),1629666067389,111.55343333333333,NA,fill_conclusion,47,filler-oi
2778,The judge asks:|The witness responds:,822897,35,Nice to be ready ;),DID,Higher Degree,1629672760595,277,female,1,"German, Italian",Next,NA,NA,Did you only see ten bread slices on the kitchen counter?,NA,Next,NA,Sun Aug 22 2021 23:01:07 GMT+0200 (CEST),1629666067389,111.55343333333333,NA,fill_question,48,filler-oi
2778,,NA,35,Nice to be ready ;),SUP,Higher Degree,1629672760595,277,female,1,"German, Italian",Next,NA,NA,,382|405|495|417|460|406|877|506|326|282|326|754,Next,I | probably | saw | at | most | ten | bread | slices | on | the | kitchen | counter.,Sun Aug 22 2021 23:01:07 GMT+0200 (CEST),1629666067389,111.55343333333333,8865,fill_answer,48,filler-oi
2778,"Based on this, the judge concludes:|How justified is the judge in drawing that conclusion?",10788,35,Nice to be ready ;),NA,Higher Degree,1629672760595,277,female,1,"German, Italian",NA,not justifiable at all,strongly justifiable,The witness thinks that it is possible that she saw eleven bread slices on the kitchen counter.,NA,4,NA,Sun Aug 22 2021 23:01:07 GMT+0200 (CEST),1629666067389,111.55343333333333,NA,fill_conclusion,48,filler-oi
2778,The judge asks:|The witness responds:,3230,35,Nice to be ready ;),HOWMANY,Higher Degree,1629672760595,277,female,6,"German, Italian",Next,NA,NA,How many of the shot glasses did you see on the kitchen counter?,NA,Next,NA,Sun Aug 22 2021 23:01:07 GMT+0200 (CEST),1629666067389,111.55343333333333,NA,question_view,25,main
2778,,NA,35,Nice to be ready ;),COMP,Higher Degree,1629672760595,277,female,6,"German, Italian",next,NA,NA,,360|371|338|405|337|304|315|303|293|281|259|225|360,next,I | found | less | than | ten | of | the | shot | glasses | on | the | kitchen | counter.,Sun Aug 22 2021 23:01:07 GMT+0200 (CEST),1629666067389,111.55343333333333,6951,answer_view,25,main
2778,"Based on this, the judge concludes:|How justified is the judge in drawing that conclusion?",8324,35,Nice to be ready ;),NA,Higher Degree,1629672760595,277,female,6,"German, Italian",NA,not justifiable at all,strongly justifiable,The witness doesn’t know exactly how many of the shot glasses she found on the kitchen counter.,NA,3,NA,Sun Aug 22 2021 23:01:07 GMT+0200 (CEST),1629666067389,111.55343333333333,NA,conclusion_view,25,main
2778,The judge asks:|The witness responds:,8516,35,Nice to be ready ;),HOWMANY,Higher Degree,1629672760595,277,female,1,"German, Italian",Next,NA,NA,How many of the coins did you find in the wallet?,NA,Next,NA,Sun Aug 22 2021 23:01:07 GMT+0200 (CEST),1629666067389,111.55343333333333,NA,question_view,26,main
2778,,NA,35,Nice to be ready ;),COMP,Higher Degree,1629672760595,277,female,1,"German, Italian",next,NA,NA,,405|371|350|314|304|270|259|236|225|213|316,next,I | found | less | than | ten | of | the | coins | in | the | wallet.,Sun Aug 22 2021 23:01:07 GMT+0200 (CEST),1629666067389,111.55343333333333,6367,answer_view,26,main
2778,"Based on this, the judge concludes:|How justified is the judge in drawing that conclusion?",3408,35,Nice to be ready ;),NA,Higher Degree,1629672760595,277,female,1,"German, Italian",NA,not justifiable at all,strongly justifiable,The witness doesn’t know exactly how many of the coins she found in the wallet.,NA,3,NA,Sun Aug 22 2021 23:01:07 GMT+0200 (CEST),1629666067389,111.55343333333333,NA,conclusion_view,26,main
2778,The judge asks:|The witness responds:,6818,35,Nice to be ready ;),HOWMANY,Higher Degree,1629672760595,277,female,2,"German, Italian",Next,NA,NA,How many of the pills did you find in the bag?,NA,Next,NA,Sun Aug 22 2021 23:01:07 GMT+0200 (CEST),1629666067389,111.55343333333333,NA,question_view,27,main
2778,,NA,35,Nice to be ready ;),COMP,Higher Degree,1629672760595,277,female,2,"German, Italian",next,NA,NA,,460|417|394|326|292|304|315|259|281|236|304,next, I | found | less | than | ten | of | the | pills | in  | the | bag.,Sun Aug 22 2021 23:01:07 GMT+0200 (CEST),1629666067389,111.55343333333333,6018,answer_view,27,main
2778,"Based on this, the judge concludes:|How justified is the judge in drawing that conclusion?",2801,35,Nice to be ready ;),NA,Higher Degree,1629672760595,277,female,2,"German, Italian",NA,not justifiable at all,strongly justifiable,The witness doesn’t know exactly how many of the pills she found in the bag.,NA,3,NA,Sun Aug 22 2021 23:01:07 GMT+0200 (CEST),1629666067389,111.55343333333333,NA,conclusion_view,27,main
2778,The judge asks:|The witness responds:,10361,35,Nice to be ready ;),HOWMANY,Higher Degree,1629672760595,277,female,3,"German, Italian",Next,NA,NA,How many of the shots did you hear coming from the school shooting?,NA,Next,NA,Sun Aug 22 2021 23:01:07 GMT+0200 (CEST),1629666067389,111.55343333333333,NA,question_view,28,main
2778,,NA,35,Nice to be ready ;),COMP,Higher Degree,1629672760595,277,female,3,"German, Italian",next,NA,NA,,326|326|304|315|259|281|225|225|203|202|259|236|248,next, I | heard | less | than | ten | of | the | shots | coming | from | the | school | shooting.,Sun Aug 22 2021 23:01:07 GMT+0200 (CEST),1629666067389,111.55343333333333,6097,answer_view,28,main
2778,"Based on this, the judge concludes:|How justified is the judge in drawing that conclusion?",8786,35,Nice to be ready ;),NA,Higher Degree,1629672760595,277,female,3,"German, Italian",NA,not justifiable at all,strongly justifiable,The witness doesn’t know exactly how many of the shots she heard coming from the school shooting.,NA,4,NA,Sun Aug 22 2021 23:01:07 GMT+0200 (CEST),1629666067389,111.55343333333333,NA,conclusion_view,28,main
2778,The judge asks:|The witness responds:,25302,35,Nice to be ready ;),HOWMANY,Higher Degree,1629672760595,277,female,4,"German, Italian",Next,NA,NA,How many of the robbers did you see in front of the bank?,NA,Next,NA,Sun Aug 22 2021 23:01:07 GMT+0200 (CEST),1629666067389,111.55343333333333,NA,question_view,29,main
2778,,NA,35,Nice to be ready ;),COMP,Higher Degree,1629672760595,277,female,4,"German, Italian",next,NA,NA,,359|315|259|236|214|225|226|213|236|203|236|259|292,next,I | saw | less | than | ten | of | the | robbers | in | front | of | the | bank.,Sun Aug 22 2021 23:01:07 GMT+0200 (CEST),1629666067389,111.55343333333333,6513,answer_view,29,main
2778,"Based on this, the judge concludes:|How justified is the judge in drawing that conclusion?",8482,35,Nice to be ready ;),NA,Higher Degree,1629672760595,277,female,4,"German, Italian",NA,not justifiable at all,strongly justifiable,The witness doesn’t know exactly how many of the robbers she saw in front of the bank.,NA,4,NA,Sun Aug 22 2021 23:01:07 GMT+0200 (CEST),1629666067389,111.55343333333333,NA,conclusion_view,29,main
2778,The judge asks:|The witness responds:,2756,35,Nice to be ready ;),HOWMANY,Higher Degree,1629672760595,277,female,5,"German, Italian",Next,NA,NA,How many of the bills did you see in the purse?,NA,Next,NA,Sun Aug 22 2021 23:01:07 GMT+0200 (CEST),1629666067389,111.55343333333333,NA,question_view,30,main
2778,,NA,35,Nice to be ready ;),COMP,Higher Degree,1629672760595,277,female,5,"German, Italian",next,NA,NA,,303|293|258|214|203|224|214|192|213|181|191,next,I | saw | less | than | ten | of | the | bills | in  | the | purse.,Sun Aug 22 2021 23:01:07 GMT+0200 (CEST),1629666067389,111.55343333333333,5073,answer_view,30,main
2778,"Based on this, the judge concludes:|How justified is the judge in drawing that conclusion?",3825,35,Nice to be ready ;),NA,Higher Degree,1629672760595,277,female,5,"German, Italian",NA,not justifiable at all,strongly justifiable,The witness doesn’t know exactly how many of the bills she saw in the purse.,NA,4,NA,Sun Aug 22 2021 23:01:07 GMT+0200 (CEST),1629666067389,111.55343333333333,NA,conclusion_view,30,main
2778,The judge asks:|The witness responds:,6659,35,Nice to be ready ;),POLAR,Higher Degree,1629672760595,277,female,9,"German, Italian",Next,NA,NA,Did you certainly see at most ten drug addicts at the party?,NA,Next,NA,Sun Aug 22 2021 23:01:07 GMT+0200 (CEST),1629666067389,111.55343333333333,NA,fill_question,49,filler-implau
2778,,NA,35,Nice to be ready ;),SUP,Higher Degree,1629672760595,277,female,9,"German, Italian",Next,NA,NA,,315|315|281|282|326|281|281|248|224|226,Next,I | saw | at | most | ten | drug | addicts | at | the | party.,Sun Aug 22 2021 23:01:07 GMT+0200 (CEST),1629666067389,111.55343333333333,6457,fill_answer,49,filler-implau
2778,"Based on this, the judge concludes:|How justified is the judge in drawing that conclusion?",10069,35,Nice to be ready ;),NA,Higher Degree,1629672760595,277,female,9,"German, Italian",NA,not justifiable at all,strongly justifiable,The witness thinks the number of drug addicts she saw at the party is comparably high. ,NA,4,NA,Sun Aug 22 2021 23:01:07 GMT+0200 (CEST),1629666067389,111.55343333333333,NA,fill_conclusion,49,filler-implau
2778,The judge asks:|The witness responds:,11295,35,Nice to be ready ;),POLAR,Higher Degree,1629672760595,277,female,4,"German, Italian",Next,NA,NA,Did you certainly find less than ten children while trying to escape the fire?,NA,Next,NA,Sun Aug 22 2021 23:01:07 GMT+0200 (CEST),1629666067389,111.55343333333333,NA,fill_question,50,filler-implau
2778,,NA,35,Nice to be ready ;),COMP,Higher Degree,1629672760595,277,female,4,"German, Italian",Next,NA,NA,,360|315|349|292|281|293|293|258|315|270|270|226|168,Next,I  | only | found | less | than | ten | children | while | trying | to | escape | the | fire.,Sun Aug 22 2021 23:01:07 GMT+0200 (CEST),1629666067389,111.55343333333333,6277,fill_answer,50,filler-implau
2778,"Based on this, the judge concludes:|How justified is the judge in drawing that conclusion?",7110,35,Nice to be ready ;),NA,Higher Degree,1629672760595,277,female,4,"German, Italian",NA,not justifiable at all,strongly justifiable,The witness thinks the number of children she found trying to escape the fire is comparably high.,NA,2,NA,Sun Aug 22 2021 23:01:07 GMT+0200 (CEST),1629666067389,111.55343333333333,NA,fill_conclusion,50,filler-implau
2778,The judge asks:|The witness responds:,3915,35,Nice to be ready ;),WHAT,Higher Degree,1629672760595,277,female,5,"German, Italian",Next,NA,NA,What did you certainly hear at this event?,NA,Next,NA,Sun Aug 22 2021 23:01:07 GMT+0200 (CEST),1629666067389,111.55343333333333,NA,fill_question,51,filler-implau
2778,,NA,35,Nice to be ready ;),COMP,Higher Degree,1629672760595,277,female,5,"German, Italian",Next,NA,NA,,449|327|326|316|292|270|247|472|315|248,Next,I | heard | less | than | ten | women | shouting | at | this | event.,Sun Aug 22 2021 23:01:07 GMT+0200 (CEST),1629666067389,111.55343333333333,7954,fill_answer,51,filler-implau
2778,"Based on this, the judge concludes:|How justified is the judge in drawing that conclusion?",4207,35,Nice to be ready ;),NA,Higher Degree,1629672760595,277,female,5,"German, Italian",NA,not justifiable at all,strongly justifiable,The witness thinks the number of women she heard shouting at this event is comparably high.,NA,2,NA,Sun Aug 22 2021 23:01:07 GMT+0200 (CEST),1629666067389,111.55343333333333,NA,fill_conclusion,51,filler-implau
2778,The judge asks:|The witness responds:,3431,35,Nice to be ready ;),DID,Higher Degree,1629672760595,277,female,7,"German, Italian",Next,NA,NA,Did you only see ten of the lollipops in the drawer?,NA,Next,NA,Sun Aug 22 2021 23:01:07 GMT+0200 (CEST),1629666067389,111.55343333333333,NA,fill_question,52,filler-ov
2778,,NA,35,Nice to be ready ;),COMP,Higher Degree,1629672760595,277,female,7,"German, Italian",Next,NA,NA,,360|270|247|270|259|225|225|225|191|191|203,Next,I | saw | less | than | ten | of | the | lollipops | in | the | drawer.,Sun Aug 22 2021 23:01:07 GMT+0200 (CEST),1629666067389,111.55343333333333,7357,fill_answer,52,filler-ov
2778,"Based on this, the judge concludes:|How justified is the judge in drawing that conclusion?",5558,35,Nice to be ready ;),NA,Higher Degree,1629672760595,277,female,7,"German, Italian",NA,not justifiable at all,strongly justifiable,The witness considers it possible that she saw nine of the lollipops in the drawer.,NA,4,NA,Sun Aug 22 2021 23:01:07 GMT+0200 (CEST),1629666067389,111.55343333333333,NA,fill_conclusion,52,filler-ov
2778,The judge asks:|The witness responds:,9461,35,Nice to be ready ;),HOWMANY,Higher Degree,1629672760595,277,female,4,"German, Italian",Next,NA,NA,How many children did you approximately find while trying to escape the fire?,NA,Next,NA,Sun Aug 22 2021 23:01:07 GMT+0200 (CEST),1629666067389,111.55343333333333,NA,fill_question,53,filler-implau
2778,,NA,35,Nice to be ready ;),COMP,Higher Degree,1629672760595,277,female,4,"German, Italian",Next,NA,NA,,348|315|326|271|236|236|225|225|248|428|291|417,Next,I | found | less | than | ten | children | while | trying | to | escape | the | fire.,Sun Aug 22 2021 23:01:07 GMT+0200 (CEST),1629666067389,111.55343333333333,6772,fill_answer,53,filler-implau
2778,"Based on this, the judge concludes:|How justified is the judge in drawing that conclusion?",7773,35,Nice to be ready ;),NA,Higher Degree,1629672760595,277,female,4,"German, Italian",NA,not justifiable at all,strongly justifiable,The witness thinks the number of children she found trying to escape the fire is comparably high.,NA,2,NA,Sun Aug 22 2021 23:01:07 GMT+0200 (CEST),1629666067389,111.55343333333333,NA,fill_conclusion,53,filler-implau
2778,The judge asks:|The witness responds:,6254,35,Nice to be ready ;),DID,Higher Degree,1629672760595,277,female,4,"German, Italian",Next,NA,NA,Did you find children while trying to escape the fire?,NA,Next,NA,Sun Aug 22 2021 23:01:07 GMT+0200 (CEST),1629666067389,111.55343333333333,NA,fill_question,54,filler-implau
2778,,NA,35,Nice to be ready ;),SUP,Higher Degree,1629672760595,277,female,4,"German, Italian",Next,NA,NA,,371|293|281|281|316|258|248|225|258|236|237|225,Next,I | found | at | most | ten | children | while | trying | to | escape | the | fire.,Sun Aug 22 2021 23:01:07 GMT+0200 (CEST),1629666067389,111.55343333333333,6198,fill_answer,54,filler-implau
2778,"Based on this, the judge concludes:|How justified is the judge in drawing that conclusion?",8538,35,Nice to be ready ;),NA,Higher Degree,1629672760595,277,female,4,"German, Italian",NA,not justifiable at all,strongly justifiable,The witness thinks the number of children they found trying to escape the fire is comparably high.,NA,3,NA,Sun Aug 22 2021 23:01:07 GMT+0200 (CEST),1629666067389,111.55343333333333,NA,fill_conclusion,54,filler-implau
2778,The judge asks:|The witness responds:,68559,35,Nice to be ready ;),WHAT,Higher Degree,1629672760595,277,female,9,"German, Italian",Next,NA,NA,What did you certainly see at the party?,NA,Next,NA,Sun Aug 22 2021 23:01:07 GMT+0200 (CEST),1629666067389,111.55343333333333,NA,fill_question,55,filler-plau
2778,,NA,35,Nice to be ready ;),SUP,Higher Degree,1629672760595,277,female,9,"German, Italian",Next,NA,NA,,405|371|406|393|304|360|405|326|416|417|1384,Next,I | only | saw | at | most | ten | drug | addicts | at | the | party.,Sun Aug 22 2021 23:01:07 GMT+0200 (CEST),1629666067389,111.55343333333333,8201,fill_answer,55,filler-plau
2778,"Based on this, the judge concludes:|How justified is the judge in drawing that conclusion?",4646,35,Nice to be ready ;),NA,Higher Degree,1629672760595,277,female,9,"German, Italian",NA,not justifiable at all,strongly justifiable,The witness thinks the number of drug addicts she saw at the party is comparably low.,NA,2,NA,Sun Aug 22 2021 23:01:07 GMT+0200 (CEST),1629666067389,111.55343333333333,NA,fill_conclusion,55,filler-plau
2778,The judge asks:|The witness responds:,6570,35,Nice to be ready ;),POLAR,Higher Degree,1629672760595,277,female,6,"German, Italian",Next,NA,NA,Did you hear less than ten animals howling in the forest?,NA,Next,NA,Sun Aug 22 2021 23:01:07 GMT+0200 (CEST),1629666067389,111.55343333333333,NA,fill_question,56,filler-oi
2778,,NA,35,Nice to be ready ;),COMP,Higher Degree,1629672760595,277,female,6,"German, Italian",Next,NA,NA,,325|305|280|282|270|236|337|259|259|360,Next,I | heard | less | than | ten | animals | howling | in | the | forest.,Sun Aug 22 2021 23:01:07 GMT+0200 (CEST),1629666067389,111.55343333333333,5749,fill_answer,56,filler-oi
2778,"Based on this, the judge concludes:|How justified is the judge in drawing that conclusion?",5084,35,Nice to be ready ;),NA,Higher Degree,1629672760595,277,female,6,"German, Italian",NA,not justifiable at all,strongly justifiable,The witness considers it possible that she heard eleven animals howling in the forest.,NA,1,NA,Sun Aug 22 2021 23:01:07 GMT+0200 (CEST),1629666067389,111.55343333333333,NA,fill_conclusion,56,filler-oi
2778,The judge asks:|The witness responds:,6908,35,Nice to be ready ;),POLAR,Higher Degree,1629672760595,277,female,7,"German, Italian",Next,NA,NA,Did you find at most ten of the lollipops in the drawer?,NA,Next,NA,Sun Aug 22 2021 23:01:07 GMT+0200 (CEST),1629666067389,111.55343333333333,NA,fill_question,57,filler-ov
2778,,NA,35,Nice to be ready ;),SUP,Higher Degree,1629672760595,277,female,7,"German, Italian",Next,NA,NA,,315|270|225|214|214|236|236|338|191|214,Next,I | found | at | most | ten of | the | lollipops | in | the | drawer.,Sun Aug 22 2021 23:01:07 GMT+0200 (CEST),1629666067389,111.55343333333333,6334,fill_answer,57,filler-ov
2778,"Based on this, the judge concludes:|How justified is the judge in drawing that conclusion?",6142,35,Nice to be ready ;),NA,Higher Degree,1629672760595,277,female,7,"German, Italian",NA,not justifiable at all,strongly justifiable,The witness considers it possible that she found ten of the lollipops in the drawer.,NA,3,NA,Sun Aug 22 2021 23:01:07 GMT+0200 (CEST),1629666067389,111.55343333333333,NA,fill_conclusion,57,filler-ov
2778,The judge asks:|The witness responds:,17943,35,Nice to be ready ;),DID,Higher Degree,1629672760595,277,female,7,"German, Italian",Next,NA,NA,Did you only find ten lollipops in the drawer?,NA,Next,NA,Sun Aug 22 2021 23:01:07 GMT+0200 (CEST),1629666067389,111.55343333333333,NA,fill_question,58,filler-plau
2778,,NA,35,Nice to be ready ;),SUP,Higher Degree,1629672760595,277,female,7,"German, Italian",Next,NA,NA,,517|473|473|505|484|518|371|371|551,Next,I | found | at | most | ten | lollipops | in | the | drawer.,Sun Aug 22 2021 23:01:07 GMT+0200 (CEST),1629666067389,111.55343333333333,6333,fill_answer,58,filler-plau
2778,"Based on this, the judge concludes:|How justified is the judge in drawing that conclusion?",5017,35,Nice to be ready ;),NA,Higher Degree,1629672760595,277,female,7,"German, Italian",NA,not justifiable at all,strongly justifiable,The witness thinks the number of lollipops she found in the drawer is comparably low.,NA,2,NA,Sun Aug 22 2021 23:01:07 GMT+0200 (CEST),1629666067389,111.55343333333333,NA,fill_conclusion,58,filler-plau
2778,The judge asks:|The witness responds:,18157,35,Nice to be ready ;),HOWMANY,Higher Degree,1629672760595,277,female,8,"German, Italian",Next,NA,NA,How many pictures of the assault did you probably find in the locker?,NA,Next,NA,Sun Aug 22 2021 23:01:07 GMT+0200 (CEST),1629666067389,111.55343333333333,NA,fill_question,59,filler-ov
2778,,NA,35,Nice to be ready ;),SUP,Higher Degree,1629672760595,277,female,8,"German, Italian",Next,NA,NA,,393|293|258|293|776|304|270|202|248|247|484|371|406,Next,I | probably | found | at | most | ten | pictures | of | the | assault | in | the | locker.,Sun Aug 22 2021 23:01:07 GMT+0200 (CEST),1629666067389,111.55343333333333,6986,fill_answer,59,filler-ov
2778,"Based on this, the judge concludes:|How justified is the judge in drawing that conclusion?",5220,35,Nice to be ready ;),NA,Higher Degree,1629672760595,277,female,8,"German, Italian",NA,not justifiable at all,strongly justifiable,The witness considers it possible that she saw nine pictures of the assault in the locker.,NA,1,NA,Sun Aug 22 2021 23:01:07 GMT+0200 (CEST),1629666067389,111.55343333333333,NA,fill_conclusion,59,filler-ov
2778,The judge asks:|The witness responds:,14063,35,Nice to be ready ;),HOWMANY,Higher Degree,1629672760595,277,female,2,"German, Italian",Next,NA,NA,How many of the balloons did you approximately see flying in the air?,NA,Next,NA,Sun Aug 22 2021 23:01:07 GMT+0200 (CEST),1629666067389,111.55343333333333,NA,fill_question,60,filler-oi
2778,,NA,35,Nice to be ready ;),SUP,Higher Degree,1629672760595,277,female,2,"German, Italian",Next,NA,NA,,292|395|280|326|349|349|314|282|293|236|292|293|315,Next,I | only | saw | at | most | ten | of | the | balloons | flying | in | the | air.,Sun Aug 22 2021 23:01:07 GMT+0200 (CEST),1629666067389,111.55343333333333,6737,fill_answer,60,filler-oi
2778,"Based on this, the judge concludes:|How justified is the judge in drawing that conclusion?",5186,35,Nice to be ready ;),NA,Higher Degree,1629672760595,277,female,2,"German, Italian",NA,not justifiable at all,strongly justifiable,The witness considers it possible that she saw eleven of the balloons flying in the air.,NA,4,NA,Sun Aug 22 2021 23:01:07 GMT+0200 (CEST),1629666067389,111.55343333333333,NA,fill_conclusion,60,filler-oi
2778,The judge asks:|The witness responds:,37721,35,Nice to be ready ;),WHAT,Higher Degree,1629672760595,277,female,2,"German, Italian",Next,NA,NA,What did you find in the bag?,NA,Next,NA,Sun Aug 22 2021 23:01:07 GMT+0200 (CEST),1629666067389,111.55343333333333,NA,question_view,31,main
2778,,NA,35,Nice to be ready ;),SUP,Higher Degree,1629672760595,277,female,2,"German, Italian",next,NA,NA,,394|461|383|562|416|349|281|248|247|236|214,next,I | found | at | most | ten | of | the | pills | in  | the | bag.,Sun Aug 22 2021 23:01:07 GMT+0200 (CEST),1629666067389,111.55343333333333,7818,answer_view,31,main
2778,"Based on this, the judge concludes:|How justified is the judge in drawing that conclusion?",7244,35,Nice to be ready ;),NA,Higher Degree,1629672760595,277,female,2,"German, Italian",NA,not justifiable at all,strongly justifiable,The witness doesn’t know exactly how many of the pills she found in the bag.,NA,2,NA,Sun Aug 22 2021 23:01:07 GMT+0200 (CEST),1629666067389,111.55343333333333,NA,conclusion_view,31,main
